# timestamp ang_vel_x ang_vel_y ang_vel_z lin_acc_x lin_acc_y lin_acc_z
0 523.077220000000 -0.007456851192 -0.004261057824 -0.000000000000 -0.162804871798 -1.565799832344 9.792234420776
1 523.079220000000 -0.008522115648 -0.004261057824 -0.000000000000 -0.167593255639 -1.565799832344 9.768292427063
2 523.081217000000 -0.005326322280 -0.003195793368 -0.003195793368 -0.148439735174 -1.623260378838 9.672525405884
3 523.083216000000 -0.009587380104 -0.004261057824 0.001065264456 -0.153228119016 -1.604106903076 9.782657623291
4 523.085217000000 -0.008522115648 -0.004261057824 -0.001065264456 -0.129286229610 -1.584953308105 9.773080825806
5 523.087216000000 -0.004261057824 -0.005326322280 -0.003195793368 -0.124497845769 -1.556223034859 9.768292427063
6 523.089216000000 -0.008522115648 -0.004261057824 -0.004261057824 -0.138862982392 -1.589741706848 9.787446022034
7 523.091224000000 -0.008522115648 -0.004261057824 -0.002130528912 -0.129286229610 -1.580165028572 9.744350433350
8 523.093222000000 -0.007456851192 -0.003195793368 -0.000000000000 -0.143651366234 -1.594530105591 9.758715629578
9 523.095218000000 -0.008522115648 -0.003195793368 -0.002130528912 -0.172381639481 -1.599318504333 9.734773635864
10 523.097218000000 -0.007456851192 -0.004261057824 -0.000000000000 -0.105344332755 -1.604106903076 9.763504028320
11 523.099218000000 -0.005326322280 -0.004261057824 -0.003195793368 -0.119709469378 -1.599318504333 9.768292427063
12 523.101218000000 -0.005326322280 -0.003195793368 -0.001065264456 -0.134074598551 -1.584953308105 9.792234420776
13 523.103219000000 -0.011717909016 -0.004261057824 -0.006391586736 -0.148439735174 -1.575376629829 9.768292427063
14 523.105221000000 -0.006391586736 -0.005326322280 -0.003195793368 -0.153228119016 -1.618471980095 9.777869224548
15 523.107220000000 -0.006391586736 -0.002130528912 -0.002130528912 -0.134074598551 -1.589741706848 9.801811218262
16 523.109218000000 -0.003195793368 -0.004261057824 -0.005326322280 -0.148439735174 -1.570588231087 9.725196838379
17 523.111221000000 -0.005326322280 -0.005326322280 -0.003195793368 -0.124497845769 -1.580165028572 9.773080825806
18 523.113222000000 -0.010652644560 -0.003195793368 -0.002130528912 -0.167593255639 -1.589741706848 9.787446022034
19 523.115221000000 -0.011717909016 -0.004261057824 -0.002130528912 -0.153228119016 -1.556223034859 9.720408439636
20 523.117220000000 -0.006391586736 -0.003195793368 -0.004261057824 -0.138862982392 -1.570588231087 9.792234420776
21 523.119219000000 -0.006391586736 -0.006391586736 -0.004261057824 -0.153228119016 -1.565799832344 9.820964813232
22 523.121217000000 -0.006391586736 -0.005326322280 -0.002130528912 -0.162804871798 -1.604106903076 9.792234420776
23 523.123218000000 -0.005326322280 -0.004261057824 0.001065264456 -0.138862982392 -1.599318504333 9.749138832092
24 523.125217000000 -0.006391586736 -0.005326322280 -0.000000000000 -0.181958392262 -1.589741706848 9.773080825806
25 523.127217000000 -0.006391586736 -0.006391586736 -0.001065264456 -0.143651366234 -1.556223034859 9.787446022034
26 523.129218000000 -0.007456851192 -0.005326322280 -0.001065264456 -0.129286229610 -1.608895301819 9.801811218262
27 523.131221000000 -0.012783173472 -0.003195793368 -0.001065264456 -0.181958392262 -1.589741706848 9.816176414490
28 523.133219000000 -0.008522115648 -0.004261057824 -0.001065264456 -0.124497845769 -1.575376629829 9.830541610718
29 523.135221000000 -0.006391586736 -0.003195793368 -0.001065264456 -0.153228119016 -1.604106903076 9.777869224548
30 523.137219000000 -0.007456851192 -0.006391586736 -0.001065264456 -0.143651366234 -1.580165028572 9.729985237122
31 523.139221000000 -0.004261057824 -0.004261057824 -0.003195793368 -0.153228119016 -1.551434755325 9.763504028320
32 523.141222000000 -0.008522115648 -0.005326322280 -0.005326322280 -0.124497845769 -1.599318504333 9.744350433350
33 523.143224000000 -0.007456851192 -0.003195793368 -0.004261057824 -0.148439735174 -1.584953308105 9.696466445923
34 523.145220000000 -0.008522115648 -0.008522115648 -0.002130528912 -0.205900281668 -1.580165028572 9.753927230835
35 523.147219000000 -0.006391586736 -0.005326322280 -0.002130528912 -0.129286229610 -1.623260378838 9.782657623291
36 523.149218000000 -0.008522115648 -0.002130528912 -0.004261057824 -0.095767572522 -1.618471980095 9.773080825806
37 523.151216000000 -0.009587380104 -0.004261057824 0.001065264456 -0.162804871798 -1.580165028572 9.773080825806
38 523.153217000000 -0.008522115648 -0.002130528912 -0.002130528912 -0.134074598551 -1.589741706848 9.744350433350
39 523.155220000000 -0.004261057824 -0.002130528912 -0.002130528912 -0.177170008421 -1.565799832344 9.763504028320
40 523.157218000000 -0.006391586736 -0.005326322280 -0.000000000000 -0.167593255639 -1.608895301819 9.773080825806
41 523.159218000000 -0.008522115648 -0.005326322280 -0.004261057824 -0.134074598551 -1.594530105591 9.744350433350
42 523.161218000000 -0.009587380104 -0.003195793368 -0.001065264456 -0.129286229610 -1.604106903076 9.720408439636
43 523.163218000000 -0.010652644560 -0.004261057824 -0.001065264456 -0.148439735174 -1.608895301819 9.763504028320
44 523.165220000000 -0.008522115648 -0.003195793368 -0.004261057824 -0.110132709146 -1.613683581352 9.830541610718
45 523.167222000000 -0.006391586736 -0.003195793368 -0.000000000000 -0.158016502857 -1.594530105591 9.787446022034
46 523.169221000000 -0.006391586736 -0.007456851192 -0.001065264456 -0.167593255639 -1.570588231087 9.749138832092
47 523.171220000000 -0.006391586736 -0.005326322280 -0.002130528912 -0.153228119016 -1.575376629829 9.777869224548
48 523.173220000000 -0.006391586736 -0.000000000000 -0.000000000000 -0.124497845769 -1.589741706848 9.739562034607
49 523.175221000000 -0.009587380104 -0.003195793368 -0.004261057824 -0.110132709146 -1.565799832344 9.782657623291
50 523.177222000000 -0.006391586736 -0.005326322280 -0.004261057824 -0.134074598551 -1.623260378838 9.763504028320
51 523.179219000000 -0.008522115648 -0.004261057824 -0.001065264456 -0.153228119016 -1.594530105591 9.763504028320
52 523.181222000000 -0.008522115648 -0.005326322280 0.002130528912 -0.153228119016 -1.570588231087 9.758715629578
53 523.183219000000 -0.005326322280 -0.005326322280 -0.001065264456 -0.110132709146 -1.594530105591 9.787446022034
54 523.185221000000 -0.007456851192 -0.004261057824 -0.003195793368 -0.143651366234 -1.594530105591 9.792234420776
55 523.187220000000 -0.008522115648 -0.004261057824 -0.002130528912 -0.172381639481 -1.589741706848 9.763504028320
56 523.189219000000 -0.007456851192 -0.007456851192 -0.003195793368 -0.158016502857 -1.580165028572 9.801811218262
57 523.191218000000 -0.009587380104 -0.006391586736 -0.001065264456 -0.143651366234 -1.584953308105 9.806599617004
58 523.193222000000 -0.008522115648 -0.006391586736 -0.000000000000 -0.167593255639 -1.584953308105 9.725196838379
59 523.195222000000 -0.005326322280 -0.004261057824 -0.002130528912 -0.129286229610 -1.623260378838 9.753927230835
60 523.197220000000 -0.007456851192 -0.002130528912 0.001065264456 -0.148439735174 -1.608895301819 9.797022819519
61 523.199219000000 -0.007456851192 -0.002130528912 -0.002130528912 -0.129286229610 -1.594530105591 9.753927230835
62 523.201220000000 -0.007456851192 -0.007456851192 -0.002130528912 -0.143651366234 -1.580165028572 9.782657623291
63 523.203218000000 -0.009587380104 -0.005326322280 -0.002130528912 -0.134074598551 -1.575376629829 9.753927230835
64 523.205220000000 -0.007456851192 -0.004261057824 -0.005326322280 -0.110132709146 -1.623260378838 9.763504028320
65 523.207220000000 -0.008522115648 -0.006391586736 -0.004261057824 -0.124497845769 -1.575376629829 9.773080825806
66 523.209218000000 -0.008522115648 -0.004261057824 -0.002130528912 -0.162804871798 -1.551434755325 9.777869224548
67 523.211219000000 -0.006391586736 -0.003195793368 -0.003195793368 -0.153228119016 -1.618471980095 9.739562034607
68 523.213221000000 -0.005326322280 -0.004261057824 -0.002130528912 -0.162804871798 -1.604106903076 9.773080825806
69 523.215222000000 -0.006391586736 -0.006391586736 0.001065264456 -0.129286229610 -1.604106903076 9.806599617004
70 523.217220000000 -0.006391586736 -0.003195793368 -0.003195793368 -0.172381639481 -1.608895301819 9.806599617004
71 523.219221000000 -0.006391586736 -0.002130528912 -0.005326322280 -0.143651366234 -1.565799832344 9.725196838379
72 523.221220000000 -0.007456851192 -0.005326322280 -0.002130528912 -0.114921092987 -1.565799832344 9.729985237122
73 523.223221000000 -0.008522115648 -0.002130528912 -0.001065264456 -0.162804871798 -1.575376629829 9.768292427063
74 523.225219000000 -0.009587380104 -0.005326322280 -0.002130528912 -0.124497845769 -1.589741706848 9.811388015747
75 523.227218000000 -0.007456851192 -0.007456851192 -0.001065264456 -0.124497845769 -1.565799832344 9.734773635864
76 523.229218000000 -0.006391586736 -0.003195793368 0.002130528912 -0.129286229610 -1.594530105591 9.753927230835
77 523.231216000000 -0.009587380104 -0.003195793368 -0.001065264456 -0.134074598551 -1.599318504333 9.797022819519
78 523.233218000000 -0.006391586736 -0.003195793368 -0.004261057824 -0.220265418291 -1.561011433601 9.744350433350
79 523.235220000000 -0.005326322280 -0.002130528912 -0.004261057824 -0.172381639481 -1.556223034859 9.744350433350
80 523.237220000000 -0.005326322280 -0.002130528912 -0.002130528912 -0.124497845769 -1.580165028572 9.749138832092
81 523.239221000000 -0.005326322280 -0.004261057824 -0.001065264456 -0.148439735174 -1.584953308105 9.825753211975
82 523.241221000000 -0.004261057824 -0.003195793368 -0.002130528912 -0.162804871798 -1.575376629829 9.830541610718
83 523.243227000000 -0.006391586736 -0.005326322280 -0.004261057824 -0.158016502857 -1.594530105591 9.806599617004
84 523.245214000000 -0.007456851192 -0.005326322280 -0.002130528912 -0.172381639481 -1.608895301819 9.753927230835
85 523.247230000000 -0.005326322280 -0.003195793368 -0.005326322280 -0.186746776104 -1.584953308105 9.768292427063
86 523.249228000000 -0.005326322280 -0.004261057824 -0.002130528912 -0.148439735174 -1.589741706848 9.758715629578
87 523.251221000000 -0.005326322280 -0.005326322280 -0.001065264456 -0.172381639481 -1.580165028572 9.758715629578
88 523.253220000000 -0.006391586736 -0.007456851192 -0.002130528912 -0.119709469378 -1.580165028572 9.806599617004
89 523.255221000000 -0.010652644560 -0.000000000000 -0.002130528912 -0.148439735174 -1.594530105591 9.744350433350
90 523.257218000000 -0.006391586736 -0.003195793368 -0.004261057824 -0.143651366234 -1.613683581352 9.811388015747
91 523.259217000000 -0.006391586736 -0.003195793368 -0.003195793368 -0.134074598551 -1.594530105591 9.777869224548
92 523.261216000000 -0.005326322280 -0.002130528912 -0.000000000000 -0.153228119016 -1.589741706848 9.797022819519
93 523.263216000000 -0.009587380104 -0.002130528912 0.001065264456 -0.138862982392 -1.594530105591 9.811388015747
94 523.265217000000 -0.010652644560 -0.002130528912 0.002130528912 -0.138862982392 -1.594530105591 9.720408439636
95 523.267216000000 -0.003195793368 -0.002130528912 -0.002130528912 -0.134074598551 -1.608895301819 9.739562034607
96 523.269216000000 -0.005326322280 -0.002130528912 -0.001065264456 -0.167593255639 -1.584953308105 9.773080825806
97 523.271217000000 -0.009587380104 0.001065264456 -0.000000000000 -0.158016502857 -1.623260378838 9.763504028320
98 523.273216000000 -0.010652644560 -0.000000000000 -0.000000000000 -0.129286229610 -1.608895301819 9.768292427063
99 523.275218000000 -0.009587380104 -0.003195793368 -0.000000000000 -0.119709469378 -1.613683581352 9.777869224548
100 523.277224000000 -0.004261057824 -0.005326322280 -0.000000000000 -0.148439735174 -1.599318504333 9.806599617004
101 523.279220000000 -0.006391586736 -0.003195793368 0.003195793368 -0.129286229610 -1.570588231087 9.739562034607
102 523.281218000000 -0.006391586736 -0.006391586736 -0.001065264456 -0.167593255639 -1.580165028572 9.773080825806
103 523.283219000000 -0.007456851192 -0.003195793368 -0.004261057824 -0.167593255639 -1.575376629829 9.801811218262
104 523.285217000000 -0.004261057824 -0.005326322280 -0.001065264456 -0.148439735174 -1.613683581352 9.777869224548
105 523.287218000000 -0.005326322280 -0.004261057824 -0.001065264456 -0.177170008421 -1.584953308105 9.725196838379
106 523.289220000000 -0.007456851192 -0.002130528912 -0.001065264456 -0.153228119016 -1.632837176323 9.734773635864
107 523.291217000000 -0.008522115648 -0.004261057824 -0.001065264456 -0.148439735174 -1.599318504333 9.758715629578
108 523.293217000000 -0.010652644560 -0.005326322280 -0.000000000000 -0.134074598551 -1.584953308105 9.768292427063
109 523.295224000000 -0.009587380104 -0.005326322280 -0.002130528912 -0.134074598551 -1.580165028572 9.744350433350
110 523.297218000000 -0.005326322280 -0.004261057824 -0.001065264456 -0.148439735174 -1.613683581352 9.749138832092
111 523.299224000000 -0.008522115648 -0.004261057824 0.001065264456 -0.162804871798 -1.642413854599 9.773080825806
112 523.301219000000 -0.008522115648 -0.005326322280 -0.003195793368 -0.153228119016 -1.580165028572 9.768292427063
113 523.303219000000 -0.005326322280 -0.004261057824 -0.006391586736 -0.153228119016 -1.599318504333 9.734773635864
114 523.305218000000 -0.009587380104 -0.003195793368 -0.005326322280 -0.148439735174 -1.628048777580 9.782657623291
115 523.307218000000 -0.007456851192 -0.001065264456 -0.003195793368 -0.100555956364 -1.613683581352 9.744350433350
116 523.309218000000 -0.007456851192 -0.002130528912 -0.004261057824 -0.143651366234 -1.604106903076 9.777869224548
117 523.311218000000 -0.006391586736 -0.003195793368 -0.005326322280 -0.167593255639 -1.599318504333 9.763504028320
118 523.313216000000 -0.007456851192 -0.002130528912 -0.005326322280 -0.153228119016 -1.570588231087 9.797022819519
119 523.315218000000 -0.008522115648 -0.004261057824 -0.002130528912 -0.148439735174 -1.570588231087 9.787446022034
120 523.317218000000 -0.006391586736 -0.000000000000 -0.001065264456 -0.134074598551 -1.613683581352 9.768292427063
121 523.319217000000 -0.007456851192 -0.001065264456 -0.003195793368 -0.134074598551 -1.604106903076 9.753927230835
122 523.321221000000 -0.006391586736 -0.005326322280 -0.002130528912 -0.186746776104 -1.599318504333 9.734773635864
123 523.323220000000 -0.007456851192 -0.003195793368 -0.002130528912 -0.158016502857 -1.570588231087 9.744350433350
124 523.325219000000 -0.006391586736 -0.004261057824 -0.001065264456 -0.134074598551 -1.580165028572 9.777869224548
125 523.327219000000 -0.006391586736 -0.004261057824 -0.004261057824 -0.172381639481 -1.556223034859 9.782657623291
126 523.329219000000 -0.006391586736 -0.003195793368 -0.005326322280 -0.153228119016 -1.613683581352 9.825753211975
127 523.331220000000 -0.006391586736 -0.005326322280 -0.004261057824 -0.172381639481 -1.594530105591 9.734773635864
128 523.333221000000 -0.006391586736 -0.005326322280 -0.000000000000 -0.162804871798 -1.584953308105 9.706043243408
129 523.335226000000 -0.008522115648 -0.000000000000 -0.000000000000 -0.129286229610 -1.584953308105 9.758715629578
130 523.337221000000 -0.005326322280 -0.002130528912 -0.004261057824 -0.181958392262 -1.599318504333 9.768292427063
131 523.339228000000 -0.007456851192 -0.004261057824 -0.004261057824 -0.177170008421 -1.570588231087 9.758715629578
132 523.341219000000 -0.008522115648 -0.004261057824 -0.001065264456 -0.129286229610 -1.551434755325 9.749138832092
133 523.343219000000 -0.005326322280 -0.003195793368 0.001065264456 -0.177170008421 -1.565799832344 9.773080825806
134 523.345217000000 -0.006391586736 -0.005326322280 -0.002130528912 -0.158016502857 -1.589741706848 9.806599617004
135 523.347225000000 -0.006391586736 -0.003195793368 -0.002130528912 -0.167593255639 -1.570588231087 9.768292427063
136 523.349219000000 -0.006391586736 -0.005326322280 -0.002130528912 -0.134074598551 -1.594530105591 9.844906806946
137 523.351218000000 -0.010652644560 -0.004261057824 -0.001065264456 -0.186746776104 -1.594530105591 9.758715629578
138 523.353216000000 -0.005326322280 -0.005326322280 -0.001065264456 -0.134074598551 -1.628048777580 9.825753211975
139 523.355220000000 -0.005326322280 -0.006391586736 -0.001065264456 -0.153228119016 -1.565799832344 9.792234420776
140 523.357222000000 -0.009587380104 -0.004261057824 -0.004261057824 -0.172381639481 -1.594530105591 9.749138832092
141 523.359220000000 -0.006391586736 -0.005326322280 -0.005326322280 -0.143651366234 -1.599318504333 9.758715629578
142 523.361219000000 -0.009587380104 -0.004261057824 -0.002130528912 -0.119709469378 -1.584953308105 9.782657623291
143 523.363222000000 -0.010652644560 -0.000000000000 -0.003195793368 -0.143651366234 -1.575376629829 9.773080825806
144 523.365221000000 -0.006391586736 -0.001065264456 -0.003195793368 -0.158016502857 -1.623260378838 9.749138832092
145 523.367221000000 -0.007456851192 -0.003195793368 0.003195793368 -0.143651366234 -1.565799832344 9.729985237122
146 523.369220000000 -0.006391586736 -0.004261057824 -0.000000000000 -0.158016502857 -1.589741706848 9.801811218262
147 523.371219000000 -0.006391586736 -0.004261057824 -0.003195793368 -0.158016502857 -1.599318504333 9.720408439636
148 523.373223000000 -0.005326322280 -0.004261057824 -0.003195793368 -0.143651366234 -1.594530105591 9.806599617004
149 523.375221000000 -0.004261057824 -0.003195793368 -0.002130528912 -0.158016502857 -1.618471980095 9.811388015747
150 523.377221000000 -0.007456851192 -0.004261057824 -0.004261057824 -0.124497845769 -1.575376629829 9.835330009460
151 523.379217000000 -0.004261057824 -0.002130528912 -0.001065264456 -0.153228119016 -1.561011433601 9.797022819519
152 523.381217000000 -0.005326322280 -0.002130528912 -0.002130528912 -0.186746776104 -1.608895301819 9.739562034607
153 523.383218000000 -0.009587380104 -0.006391586736 -0.004261057824 -0.129286229610 -1.594530105591 9.739562034607
154 523.385218000000 -0.007456851192 -0.006391586736 -0.003195793368 -0.124497845769 -1.584953308105 9.840118408203
155 523.387218000000 -0.007456851192 -0.004261057824 0.003195793368 -0.153228119016 -1.613683581352 9.725196838379
156 523.389218000000 -0.007456851192 -0.003195793368 -0.001065264456 -0.129286229610 -1.589741706848 9.816176414490
157 523.391219000000 -0.007456851192 -0.003195793368 -0.004261057824 -0.158016502857 -1.589741706848 9.816176414490
158 523.393220000000 -0.007456851192 -0.003195793368 -0.001065264456 -0.143651366234 -1.613683581352 9.739562034607
159 523.395220000000 -0.006391586736 -0.004261057824 -0.002130528912 -0.177170008421 -1.584953308105 9.840118408203
160 523.397227000000 -0.007456851192 -0.002130528912 -0.003195793368 -0.119709469378 -1.604106903076 9.763504028320
161 523.399220000000 -0.006391586736 -0.006391586736 -0.002130528912 -0.153228119016 -1.604106903076 9.792234420776
162 523.401220000000 -0.009587380104 -0.006391586736 -0.001065264456 -0.167593255639 -1.575376629829 9.787446022034
163 523.403228000000 -0.008522115648 -0.003195793368 -0.002130528912 -0.124497845769 -1.594530105591 9.777869224548
164 523.405220000000 -0.006391586736 -0.001065264456 -0.000000000000 -0.153228119016 -1.570588231087 9.773080825806
165 523.407222000000 -0.005326322280 -0.002130528912 -0.001065264456 -0.148439735174 -1.570588231087 9.835330009460
166 523.409219000000 -0.008522115648 -0.005326322280 -0.003195793368 -0.158016502857 -1.618471980095 9.777869224548
167 523.411219000000 -0.010652644560 -0.003195793368 -0.002130528912 -0.143651366234 -1.618471980095 9.744350433350
168 523.413220000000 -0.009587380104 -0.002130528912 -0.003195793368 -0.172381639481 -1.584953308105 9.801811218262
169 523.415220000000 -0.009587380104 -0.003195793368 -0.003195793368 -0.167593255639 -1.584953308105 9.706043243408
170 523.417220000000 -0.008522115648 -0.004261057824 -0.004261057824 -0.177170008421 -1.575376629829 9.806599617004
171 523.419217000000 -0.003195793368 -0.003195793368 -0.003195793368 -0.172381639481 -1.584953308105 9.749138832092
172 523.421217000000 -0.005326322280 -0.002130528912 -0.001065264456 -0.129286229610 -1.608895301819 9.696466445923
173 523.423217000000 -0.005326322280 -0.002130528912 -0.004261057824 -0.143651366234 -1.575376629829 9.763504028320
174 523.425217000000 -0.007456851192 -0.002130528912 -0.003195793368 -0.134074598551 -1.575376629829 9.816176414490
175 523.427217000000 -0.004261057824 -0.003195793368 -0.002130528912 -0.177170008421 -1.599318504333 9.782657623291
176 523.429219000000 -0.004261057824 -0.004261057824 -0.005326322280 -0.119709469378 -1.623260378838 9.691679000854
177 523.431220000000 -0.006391586736 -0.006391586736 -0.003195793368 -0.148439735174 -1.594530105591 9.753927230835
178 523.433219000000 -0.006391586736 -0.004261057824 -0.003195793368 -0.138862982392 -1.589741706848 9.773080825806
179 523.435224000000 -0.005326322280 -0.002130528912 -0.001065264456 -0.153228119016 -1.608895301819 9.729985237122
180 523.437223000000 -0.006391586736 -0.003195793368 -0.000000000000 -0.124497845769 -1.575376629829 9.820964813232
181 523.439220000000 -0.007456851192 -0.004261057824 -0.003195793368 -0.148439735174 -1.589741706848 9.758715629578
182 523.441219000000 -0.006391586736 -0.007456851192 -0.004261057824 -0.143651366234 -1.584953308105 9.710831642151
183 523.443220000000 -0.006391586736 -0.003195793368 -0.002130528912 -0.138862982392 -1.565799832344 9.787446022034
184 523.445246000000 -0.007456851192 -0.007456851192 -0.000000000000 -0.153228119016 -1.608895301819 9.792234420776
185 523.447219000000 -0.006391586736 -0.003195793368 -0.003195793368 -0.143651366234 -1.570588231087 9.816176414490
186 523.449222000000 -0.008522115648 -0.003195793368 -0.003195793368 -0.167593255639 -1.589741706848 9.725196838379
187 523.451220000000 -0.007456851192 -0.004261057824 -0.003195793368 -0.129286229610 -1.584953308105 9.816176414490
188 523.453220000000 -0.009587380104 -0.004261057824 -0.001065264456 -0.148439735174 -1.594530105591 9.739562034607
189 523.455219000000 -0.005326322280 -0.005326322280 -0.003195793368 -0.158016502857 -1.584953308105 9.729985237122
190 523.457218000000 -0.003195793368 -0.006391586736 -0.005326322280 -0.119709469378 -1.594530105591 9.797022819519
191 523.459217000000 -0.007456851192 -0.003195793368 -0.001065264456 -0.134074598551 -1.589741706848 9.773080825806
192 523.461216000000 -0.007456851192 -0.005326322280 -0.003195793368 -0.129286229610 -1.613683581352 9.777869224548
193 523.463217000000 -0.009587380104 -0.003195793368 -0.002130528912 -0.153228119016 -1.584953308105 9.806599617004
194 523.465216000000 -0.005326322280 -0.005326322280 -0.002130528912 -0.181958392262 -1.618471980095 9.758715629578
195 523.467219000000 -0.005326322280 -0.005326322280 -0.005326322280 -0.134074598551 -1.647202253342 9.758715629578
196 523.469220000000 -0.005326322280 -0.004261057824 -0.001065264456 -0.172381639481 -1.599318504333 9.729985237122
197 523.471218000000 -0.006391586736 -0.004261057824 -0.003195793368 -0.134074598551 -1.580165028572 9.749138832092
198 523.473218000000 -0.005326322280 -0.005326322280 -0.003195793368 -0.110132709146 -1.608895301819 9.744350433350
199 523.475220000000 -0.005326322280 -0.004261057824 -0.000000000000 -0.158016502857 -1.580165028572 9.749138832092
200 523.477217000000 -0.007456851192 -0.003195793368 -0.004261057824 -0.158016502857 -1.589741706848 9.763504028320
201 523.479218000000 -0.008522115648 -0.004261057824 -0.003195793368 -0.129286229610 -1.575376629829 9.806599617004
202 523.481218000000 -0.009587380104 -0.003195793368 -0.004261057824 -0.158016502857 -1.551434755325 9.734773635864
203 523.483222000000 -0.006391586736 -0.003195793368 -0.004261057824 -0.134074598551 -1.594530105591 9.744350433350
204 523.485220000000 -0.007456851192 -0.003195793368 -0.002130528912 -0.191535145044 -1.613683581352 9.768292427063
205 523.487218000000 -0.009587380104 -0.003195793368 -0.005326322280 -0.167593255639 -1.580165028572 9.777869224548
206 523.489217000000 -0.010652644560 -0.003195793368 -0.001065264456 -0.158016502857 -1.589741706848 9.753927230835
207 523.491217000000 -0.008522115648 -0.002130528912 -0.002130528912 -0.134074598551 -1.604106903076 9.782657623291
208 523.493218000000 -0.007456851192 -0.004261057824 -0.002130528912 -0.191535145044 -1.580165028572 9.797022819519
209 523.495221000000 -0.007456851192 -0.004261057824 -0.002130528912 -0.124497845769 -1.604106903076 9.777869224548
210 523.497221000000 -0.007456851192 -0.003195793368 -0.005326322280 -0.181958392262 -1.570588231087 9.768292427063
211 523.499237000000 -0.004261057824 -0.001065264456 -0.002130528912 -0.162804871798 -1.565799832344 9.763504028320
212 523.501223000000 -0.007456851192 -0.001065264456 -0.000000000000 -0.167593255639 -1.594530105591 9.787446022034
213 523.503220000000 -0.011717909016 -0.000000000000 -0.000000000000 -0.158016502857 -1.580165028572 9.691679000854
214 523.505220000000 -0.006391586736 -0.006391586736 -0.003195793368 -0.124497845769 -1.604106903076 9.792234420776
215 523.507221000000 -0.006391586736 -0.004261057824 -0.005326322280 -0.114921092987 -1.608895301819 9.768292427063
216 523.509221000000 -0.004261057824 -0.006391586736 -0.005326322280 -0.143651366234 -1.599318504333 9.739562034607
217 523.511220000000 -0.007456851192 -0.002130528912 -0.002130528912 -0.153228119016 -1.584953308105 9.835330009460
218 523.513220000000 -0.010652644560 -0.005326322280 -0.000000000000 -0.162804871798 -1.613683581352 9.691679000854
219 523.515221000000 -0.008522115648 -0.004261057824 -0.005326322280 -0.138862982392 -1.580165028572 9.787446022034
220 523.517220000000 -0.006391586736 -0.002130528912 -0.002130528912 -0.177170008421 -1.589741706848 9.739562034607
221 523.519218000000 -0.010652644560 -0.003195793368 0.002130528912 -0.105344332755 -1.608895301819 9.725196838379
222 523.521216000000 -0.006391586736 -0.003195793368 0.003195793368 -0.153228119016 -1.580165028572 9.768292427063
223 523.523217000000 -0.005326322280 -0.003195793368 -0.000000000000 -0.153228119016 -1.561011433601 9.758715629578
224 523.525217000000 -0.005326322280 -0.005326322280 -0.001065264456 -0.153228119016 -1.551434755325 9.744350433350
225 523.527220000000 -0.006391586736 -0.003195793368 0.001065264456 -0.119709469378 -1.608895301819 9.725196838379
226 523.529221000000 -0.007456851192 -0.002130528912 -0.002130528912 -0.181958392262 -1.565799832344 9.768292427063
227 523.531220000000 -0.006391586736 -0.002130528912 -0.003195793368 -0.119709469378 -1.599318504333 9.744350433350
228 523.533219000000 -0.008522115648 -0.005326322280 0.001065264456 -0.167593255639 -1.580165028572 9.753927230835
229 523.535223000000 -0.009587380104 -0.006391586736 -0.001065264456 -0.172381639481 -1.556223034859 9.797022819519
230 523.537221000000 -0.005326322280 -0.005326322280 -0.000000000000 -0.172381639481 -1.604106903076 9.725196838379
231 523.539220000000 -0.004261057824 -0.005326322280 -0.002130528912 -0.148439735174 -1.589741706848 9.835330009460
232 523.541241000000 -0.006391586736 -0.004261057824 -0.000000000000 -0.134074598551 -1.561011433601 9.729985237122
233 523.543224000000 -0.009587380104 -0.005326322280 -0.001065264456 -0.158016502857 -1.575376629829 9.715620040894
234 523.545220000000 -0.010652644560 -0.005326322280 -0.005326322280 -0.153228119016 -1.561011433601 9.753927230835
235 523.547218000000 -0.008522115648 -0.005326322280 -0.003195793368 -0.153228119016 -1.551434755325 9.763504028320
236 523.549217000000 -0.008522115648 -0.004261057824 -0.003195793368 -0.172381639481 -1.604106903076 9.768292427063
237 523.551219000000 -0.008522115648 -0.003195793368 -0.000000000000 -0.167593255639 -1.570588231087 9.744350433350
238 523.553220000000 -0.009587380104 -0.004261057824 -0.001065264456 -0.181958392262 -1.599318504333 9.773080825806
239 523.555219000000 -0.010652644560 -0.005326322280 -0.002130528912 -0.153228119016 -1.561011433601 9.744350433350
240 523.557220000000 -0.007456851192 -0.004261057824 -0.004261057824 -0.134074598551 -1.613683581352 9.744350433350
241 523.559221000000 -0.009587380104 -0.003195793368 -0.000000000000 -0.148439735174 -1.580165028572 9.763504028320
242 523.561220000000 -0.008522115648 -0.004261057824 -0.001065264456 -0.162804871798 -1.565799832344 9.782657623291
243 523.563220000000 -0.007456851192 -0.002130528912 -0.002130528912 -0.186746776104 -1.613683581352 9.811388015747
244 523.565221000000 -0.009587380104 -0.001065264456 -0.004261057824 -0.167593255639 -1.594530105591 9.806599617004
245 523.567222000000 -0.008522115648 -0.005326322280 -0.004261057824 -0.124497845769 -1.580165028572 9.763504028320
246 523.569220000000 -0.006391586736 -0.003195793368 -0.004261057824 -0.181958392262 -1.618471980095 9.773080825806
247 523.571219000000 -0.007456851192 -0.004261057824 -0.002130528912 -0.124497845769 -1.604106903076 9.753927230835
248 523.573220000000 -0.008522115648 -0.003195793368 -0.001065264456 -0.129286229610 -1.589741706848 9.749138832092
249 523.575222000000 -0.005326322280 -0.002130528912 -0.000000000000 -0.134074598551 -1.570588231087 9.801811218262
250 523.577221000000 -0.006391586736 -0.005326322280 -0.003195793368 -0.134074598551 -1.608895301819 9.792234420776
251 523.579218000000 -0.007456851192 -0.005326322280 -0.003195793368 -0.138862982392 -1.575376629829 9.749138832092
252 523.581219000000 -0.009587380104 -0.005326322280 -0.003195793368 -0.129286229610 -1.565799832344 9.773080825806
253 523.583220000000 -0.007456851192 -0.003195793368 -0.004261057824 -0.148439735174 -1.556223034859 9.806599617004
254 523.585218000000 -0.008522115648 -0.006391586736 -0.002130528912 -0.148439735174 -1.561011433601 9.787446022034
255 523.587218000000 -0.008522115648 -0.005326322280 -0.001065264456 -0.138862982392 -1.556223034859 9.782657623291
256 523.589218000000 -0.008522115648 -0.005326322280 -0.001065264456 -0.119709469378 -1.599318504333 9.758715629578
257 523.591223000000 -0.007456851192 -0.005326322280 -0.002130528912 -0.158016502857 -1.565799832344 9.734773635864
258 523.593217000000 -0.009587380104 -0.002130528912 -0.003195793368 -0.143651366234 -1.541857957840 9.691679000854
259 523.595219000000 -0.010652644560 -0.004261057824 -0.000000000000 -0.124497845769 -1.623260378838 9.706043243408
260 523.597218000000 -0.007456851192 -0.004261057824 -0.002130528912 -0.172381639481 -1.561011433601 9.744350433350
261 523.599218000000 -0.007456851192 -0.005326322280 -0.003195793368 -0.167593255639 -1.599318504333 9.816176414490
262 523.601217000000 -0.007456851192 -0.005326322280 -0.002130528912 -0.124497845769 -1.604106903076 9.749138832092
263 523.603223000000 -0.007456851192 -0.003195793368 -0.003195793368 -0.124497845769 -1.589741706848 9.763504028320
264 523.605218000000 -0.007456851192 -0.000000000000 -0.002130528912 -0.158016502857 -1.618471980095 9.801811218262
265 523.607217000000 -0.005326322280 -0.005326322280 -0.001065264456 -0.158016502857 -1.584953308105 9.739562034607
266 523.609224000000 -0.006391586736 -0.008522115648 0.001065264456 -0.153228119016 -1.580165028572 9.729985237122
267 523.611220000000 -0.007456851192 -0.004261057824 0.001065264456 -0.162804871798 -1.589741706848 9.768292427063
268 523.613223000000 -0.006391586736 -0.002130528912 -0.003195793368 -0.138862982392 -1.604106903076 9.749138832092
269 523.615221000000 -0.007456851192 -0.005326322280 0.001065264456 -0.153228119016 -1.561011433601 9.773080825806
270 523.617220000000 -0.006391586736 -0.005326322280 -0.000000000000 -0.105344332755 -1.556223034859 9.744350433350
271 523.619220000000 -0.006391586736 -0.003195793368 -0.002130528912 -0.172381639481 -1.556223034859 9.782657623291
272 523.621227000000 -0.005326322280 -0.004261057824 -0.001065264456 -0.172381639481 -1.599318504333 9.782657623291
273 523.623224000000 -0.006391586736 -0.004261057824 -0.002130528912 -0.143651366234 -1.618471980095 9.792234420776
274 523.625231000000 -0.008522115648 -0.005326322280 0.001065264456 -0.134074598551 -1.570588231087 9.763504028320
275 523.627221000000 -0.009587380104 -0.005326322280 -0.000000000000 -0.148439735174 -1.565799832344 9.777869224548
276 523.629221000000 -0.006391586736 -0.006391586736 -0.002130528912 -0.143651366234 -1.584953308105 9.806599617004
277 523.631220000000 -0.006391586736 -0.003195793368 -0.001065264456 -0.148439735174 -1.589741706848 9.820964813232
278 523.633222000000 -0.006391586736 -0.003195793368 -0.000000000000 -0.148439735174 -1.580165028572 9.797022819519
279 523.635221000000 -0.007456851192 -0.003195793368 -0.003195793368 -0.162804871798 -1.575376629829 9.710831642151
280 523.637220000000 -0.009587380104 -0.004261057824 -0.003195793368 -0.177170008421 -1.594530105591 9.773080825806
281 523.639218000000 -0.007456851192 -0.003195793368 -0.003195793368 -0.181958392262 -1.580165028572 9.801811218262
282 523.641217000000 -0.007456851192 -0.003195793368 -0.000000000000 -0.143651366234 -1.599318504333 9.734773635864
283 523.643216000000 -0.008522115648 -0.003195793368 0.001065264456 -0.138862982392 -1.608895301819 9.820964813232
284 523.645218000000 -0.005326322280 -0.006391586736 -0.001065264456 -0.129286229610 -1.594530105591 9.782657623291
285 523.647216000000 -0.007456851192 -0.006391586736 -0.003195793368 -0.153228119016 -1.584953308105 9.749138832092
286 523.649221000000 -0.006391586736 -0.003195793368 -0.003195793368 -0.134074598551 -1.556223034859 9.768292427063
287 523.651220000000 -0.008522115648 -0.002130528912 -0.002130528912 -0.138862982392 -1.575376629829 9.768292427063
288 523.653223000000 -0.008522115648 -0.002130528912 0.001065264456 -0.143651366234 -1.589741706848 9.734773635864
289 523.655220000000 -0.004261057824 -0.005326322280 -0.002130528912 -0.138862982392 -1.584953308105 9.820964813232
290 523.657219000000 -0.005326322280 -0.004261057824 -0.000000000000 -0.158016502857 -1.565799832344 9.773080825806
291 523.659217000000 -0.006391586736 -0.003195793368 -0.002130528912 -0.153228119016 -1.580165028572 9.768292427063
292 523.661218000000 -0.006391586736 -0.002130528912 -0.005326322280 -0.162804871798 -1.570588231087 9.720408439636
293 523.663218000000 -0.008522115648 -0.003195793368 -0.003195793368 -0.162804871798 -1.589741706848 9.806599617004
294 523.665218000000 -0.008522115648 -0.006391586736 -0.001065264456 -0.143651366234 -1.618471980095 9.758715629578
295 523.667220000000 -0.005326322280 -0.006391586736 -0.002130528912 -0.143651366234 -1.580165028572 9.758715629578
296 523.669216000000 -0.009587380104 -0.005326322280 -0.003195793368 -0.167593255639 -1.580165028572 9.739562034607
297 523.671218000000 -0.012783173472 -0.004261057824 -0.003195793368 -0.162804871798 -1.570588231087 9.758715629578
298 523.673217000000 -0.005326322280 -0.004261057824 -0.001065264456 -0.143651366234 -1.580165028572 9.758715629578
299 523.675218000000 -0.007456851192 -0.001065264456 -0.003195793368 -0.143651366234 -1.565799832344 9.787446022034
300 523.677218000000 -0.009587380104 -0.001065264456 -0.004261057824 -0.162804871798 -1.584953308105 9.773080825806
301 523.679222000000 -0.008522115648 -0.006391586736 -0.004261057824 -0.172381639481 -1.584953308105 9.763504028320
302 523.681222000000 -0.009587380104 -0.005326322280 -0.001065264456 -0.143651366234 -1.580165028572 9.782657623291
303 523.683220000000 -0.008522115648 -0.005326322280 -0.001065264456 -0.162804871798 -1.589741706848 9.734773635864
304 523.685221000000 -0.007456851192 -0.006391586736 -0.003195793368 -0.162804871798 -1.584953308105 9.734773635864
305 523.687223000000 -0.006391586736 -0.007456851192 0.001065264456 -0.134074598551 -1.599318504333 9.787446022034
306 523.689227000000 -0.009587380104 -0.005326322280 -0.003195793368 -0.129286229610 -1.599318504333 9.729985237122
307 523.691219000000 -0.009587380104 -0.002130528912 -0.002130528912 -0.167593255639 -1.608895301819 9.773080825806
308 523.693221000000 -0.008522115648 -0.004261057824 -0.002130528912 -0.153228119016 -1.594530105591 9.782657623291
309 523.695220000000 -0.008522115648 -0.004261057824 -0.002130528912 -0.153228119016 -1.594530105591 9.782657623291
310 523.697221000000 -0.005326322280 -0.003195793368 -0.003195793368 -0.129286229610 -1.589741706848 9.777869224548
311 523.699219000000 -0.007456851192 -0.002130528912 -0.002130528912 -0.153228119016 -1.613683581352 9.773080825806
312 523.701217000000 -0.007456851192 -0.002130528912 -0.002130528912 -0.153228119016 -1.613683581352 9.773080825806
313 523.703217000000 -0.008522115648 -0.005326322280 -0.002130528912 -0.143651366234 -1.594530105591 9.820964813232
314 523.705218000000 -0.008522115648 -0.006391586736 -0.001065264456 -0.153228119016 -1.580165028572 9.739562034607
315 523.707223000000 -0.005326322280 -0.005326322280 -0.001065264456 -0.138862982392 -1.561011433601 9.763504028320
316 523.709218000000 -0.005326322280 -0.005326322280 -0.002130528912 -0.119709469378 -1.647202253342 9.768292427063
317 523.711217000000 -0.006391586736 -0.006391586736 -0.003195793368 -0.110132709146 -1.594530105591 9.801811218262
318 523.713243000000 -0.007456851192 -0.003195793368 -0.004261057824 -0.158016502857 -1.599318504333 9.768292427063
319 523.715221000000 -0.007456851192 -0.002130528912 -0.003195793368 -0.153228119016 -1.575376629829 9.758715629578
320 523.717221000000 -0.003195793368 -0.003195793368 -0.006391586736 -0.143651366234 -1.575376629829 9.787446022034
321 523.719220000000 -0.007456851192 -0.003195793368 -0.004261057824 -0.124497845769 -1.565799832344 9.777869224548
322 523.721220000000 -0.008522115648 -0.006391586736 -0.001065264456 -0.148439735174 -1.594530105591 9.720408439636
323 523.723221000000 -0.006391586736 -0.004261057824 -0.003195793368 -0.138862982392 -1.589741706848 9.744350433350
324 523.725221000000 -0.006391586736 -0.002130528912 -0.003195793368 -0.191535145044 -1.575376629829 9.782657623291
325 523.727221000000 -0.007456851192 -0.004261057824 -0.003195793368 -0.162804871798 -1.584953308105 9.715620040894
326 523.729220000000 -0.007456851192 -0.004261057824 -0.004261057824 -0.129286229610 -1.570588231087 9.792234420776
327 523.731220000000 -0.005326322280 -0.003195793368 -0.002130528912 -0.134074598551 -1.565799832344 9.729985237122
328 523.733219000000 -0.007456851192 -0.002130528912 -0.003195793368 -0.153228119016 -1.613683581352 9.768292427063
329 523.735222000000 -0.004261057824 -0.002130528912 -0.002130528912 -0.153228119016 -1.604106903076 9.729985237122
330 523.737219000000 -0.006391586736 -0.003195793368 -0.002130528912 -0.105344332755 -1.580165028572 9.749138832092
331 523.739217000000 -0.009587380104 -0.004261057824 -0.001065264456 -0.181958392262 -1.580165028572 9.773080825806
332 523.741217000000 -0.009587380104 -0.007456851192 -0.001065264456 -0.110132709146 -1.565799832344 9.768292427063
333 523.743216000000 -0.006391586736 -0.006391586736 -0.001065264456 -0.138862982392 -1.589741706848 9.777869224548
334 523.745217000000 -0.007456851192 -0.002130528912 -0.000000000000 -0.167593255639 -1.565799832344 9.763504028320
335 523.747218000000 -0.008522115648 -0.004261057824 -0.001065264456 -0.167593255639 -1.589741706848 9.720408439636
336 523.749220000000 -0.007456851192 -0.005326322280 -0.000000000000 -0.167593255639 -1.594530105591 9.753927230835
337 523.751220000000 -0.007456851192 -0.005326322280 -0.001065264456 -0.158016502857 -1.575376629829 9.725196838379
338 523.753219000000 -0.004261057824 -0.002130528912 -0.003195793368 -0.148439735174 -1.589741706848 9.758715629578
339 523.755221000000 -0.008522115648 -0.003195793368 -0.003195793368 -0.138862982392 -1.604106903076 9.773080825806
340 523.757221000000 -0.007456851192 -0.004261057824 -0.002130528912 -0.167593255639 -1.604106903076 9.801811218262
341 523.759223000000 -0.004261057824 -0.004261057824 -0.005326322280 -0.143651366234 -1.618471980095 9.753927230835
342 523.761221000000 -0.004261057824 -0.003195793368 -0.005326322280 -0.143651366234 -1.594530105591 9.797022819519
343 523.763220000000 -0.007456851192 -0.002130528912 -0.002130528912 -0.134074598551 -1.551434755325 9.749138832092
344 523.765219000000 -0.009587380104 -0.005326322280 -0.004261057824 -0.148439735174 -1.565799832344 9.763504028320
345 523.767221000000 -0.007456851192 -0.001065264456 -0.004261057824 -0.129286229610 -1.604106903076 9.811388015747
346 523.769216000000 -0.004261057824 -0.001065264456 -0.003195793368 -0.138862982392 -1.608895301819 9.806599617004
347 523.771218000000 -0.007456851192 -0.005326322280 -0.004261057824 -0.167593255639 -1.599318504333 9.792234420776
348 523.773218000000 -0.006391586736 -0.003195793368 -0.001065264456 -0.162804871798 -1.551434755325 9.749138832092
349 523.775218000000 -0.008522115648 -0.003195793368 -0.002130528912 -0.162804871798 -1.565799832344 9.763504028320
350 523.777218000000 -0.007456851192 -0.004261057824 -0.001065264456 -0.138862982392 -1.546646356583 9.768292427063
351 523.779219000000 -0.006391586736 -0.004261057824 -0.000000000000 -0.153228119016 -1.604106903076 9.773080825806
352 523.781219000000 -0.007456851192 -0.002130528912 -0.003195793368 -0.143651366234 -1.599318504333 9.806599617004
353 523.783219000000 -0.010652644560 -0.003195793368 -0.002130528912 -0.143651366234 -1.561011433601 9.758715629578
354 523.785220000000 -0.008522115648 -0.004261057824 -0.000000000000 -0.162804871798 -1.575376629829 9.753927230835
355 523.787226000000 -0.006391586736 -0.006391586736 0.001065264456 -0.124497845769 -1.546646356583 9.758715629578
356 523.789221000000 -0.006391586736 -0.004261057824 -0.004261057824 -0.129286229610 -1.532281160355 9.739562034607
357 523.791220000000 -0.011717909016 -0.001065264456 0.001065264456 -0.110132709146 -1.604106903076 9.758715629578
358 523.793220000000 -0.008522115648 -0.002130528912 0.002130528912 -0.172381639481 -1.599318504333 9.706043243408
359 523.795220000000 -0.005326322280 -0.003195793368 -0.000000000000 -0.167593255639 -1.584953308105 9.739562034607
360 523.797219000000 -0.007456851192 -0.002130528912 -0.001065264456 -0.181958392262 -1.594530105591 9.792234420776
361 523.799220000000 -0.010652644560 -0.004261057824 -0.002130528912 -0.158016502857 -1.599318504333 9.753927230835
362 523.801225000000 -0.007456851192 -0.006391586736 -0.002130528912 -0.143651366234 -1.584953308105 9.701254844666
363 523.803220000000 -0.006391586736 -0.002130528912 -0.002130528912 -0.143651366234 -1.589741706848 9.758715629578
364 523.805220000000 -0.006391586736 -0.002130528912 -0.002130528912 -0.143651366234 -1.589741706848 9.758715629578
365 523.807221000000 -0.005326322280 -0.005326322280 -0.003195793368 -0.167593255639 -1.589741706848 9.729985237122
366 523.809222000000 -0.007456851192 -0.003195793368 -0.001065264456 -0.138862982392 -1.599318504333 9.744350433350
367 523.811213000000 -0.006391586736 -0.005326322280 -0.003195793368 -0.134074598551 -1.594530105591 9.787446022034
368 523.813225000000 -0.007456851192 -0.005326322280 -0.005326322280 -0.129286229610 -1.623260378838 9.749138832092
369 523.815222000000 -0.005326322280 -0.003195793368 0.001065264456 -0.153228119016 -1.584953308105 9.753927230835
370 523.817220000000 -0.006391586736 -0.004261057824 -0.003195793368 -0.143651366234 -1.599318504333 9.811388015747
371 523.819218000000 -0.007456851192 -0.005326322280 -0.002130528912 -0.158016502857 -1.628048777580 9.768292427063
372 523.821218000000 -0.011717909016 -0.002130528912 -0.001065264456 -0.153228119016 -1.599318504333 9.753927230835
373 523.823217000000 -0.009587380104 -0.003195793368 -0.001065264456 -0.129286229610 -1.604106903076 9.763504028320
374 523.825226000000 -0.007456851192 -0.006391586736 -0.004261057824 -0.162804871798 -1.594530105591 9.777869224548
375 523.827221000000 -0.007456851192 -0.005326322280 -0.002130528912 -0.162804871798 -1.599318504333 9.782657623291
376 523.829220000000 -0.007456851192 -0.003195793368 0.002130528912 -0.158016502857 -1.570588231087 9.792234420776
377 523.831218000000 -0.006391586736 -0.005326322280 -0.001065264456 -0.143651366234 -1.618471980095 9.763504028320
378 523.833219000000 -0.006391586736 -0.007456851192 -0.004261057824 -0.148439735174 -1.565799832344 9.777869224548
379 523.835225000000 -0.005326322280 -0.004261057824 0.001065264456 -0.124497845769 -1.561011433601 9.792234420776
380 523.837221000000 -0.006391586736 -0.003195793368 -0.003195793368 -0.148439735174 -1.599318504333 9.782657623291
381 523.839220000000 -0.007456851192 -0.005326322280 -0.004261057824 -0.138862982392 -1.565799832344 9.777869224548
382 523.841219000000 -0.006391586736 -0.003195793368 -0.002130528912 -0.129286229610 -1.632837176323 9.763504028320
383 523.843219000000 -0.009587380104 -0.004261057824 -0.003195793368 -0.129286229610 -1.628048777580 9.758715629578
384 523.845217000000 -0.005326322280 -0.002130528912 -0.003195793368 -0.110132709146 -1.575376629829 9.825753211975
385 523.847217000000 -0.006391586736 -0.002130528912 -0.002130528912 -0.162804871798 -1.580165028572 9.816176414490
386 523.849216000000 -0.012783173472 -0.002130528912 -0.002130528912 -0.114921092987 -1.594530105591 9.811388015747
387 523.851216000000 -0.007456851192 -0.004261057824 -0.000000000000 -0.119709469378 -1.580165028572 9.797022819519
388 523.853217000000 -0.001065264456 -0.004261057824 -0.003195793368 -0.148439735174 -1.604106903076 9.720408439636
389 523.855218000000 -0.001065264456 -0.003195793368 -0.001065264456 -0.167593255639 -1.565799832344 9.758715629578
390 523.857218000000 -0.006391586736 -0.003195793368 -0.001065264456 -0.138862982392 -1.589741706848 9.715620040894
391 523.859218000000 -0.007456851192 -0.003195793368 -0.000000000000 -0.158016502857 -1.613683581352 9.763504028320
392 523.861217000000 -0.004261057824 -0.003195793368 -0.002130528912 -0.177170008421 -1.613683581352 9.749138832092
393 523.863221000000 -0.006391586736 -0.004261057824 -0.002130528912 -0.134074598551 -1.580165028572 9.777869224548
394 523.865222000000 -0.008522115648 -0.002130528912 -0.000000000000 -0.177170008421 -1.623260378838 9.825753211975
395 523.867223000000 -0.010652644560 -0.006391586736 -0.000000000000 -0.148439735174 -1.618471980095 9.854483604431
396 523.869221000000 -0.007456851192 -0.006391586736 0.002130528912 -0.143651366234 -1.589741706848 9.782657623291
397 523.871219000000 -0.005326322280 -0.005326322280 -0.003195793368 -0.124497845769 -1.618471980095 9.749138832092
398 523.873222000000 -0.007456851192 -0.004261057824 -0.004261057824 -0.167593255639 -1.580165028572 9.749138832092
399 523.875222000000 -0.006391586736 -0.003195793368 -0.001065264456 -0.143651366234 -1.561011433601 9.797022819519
400 523.877222000000 -0.008522115648 -0.004261057824 -0.005326322280 -0.177170008421 -1.608895301819 9.787446022034
401 523.879220000000 -0.006391586736 -0.003195793368 -0.004261057824 -0.114921092987 -1.565799832344 9.777869224548
402 523.881219000000 -0.004261057824 -0.001065264456 -0.000000000000 -0.138862982392 -1.580165028572 9.787446022034
403 523.883220000000 -0.007456851192 -0.004261057824 -0.003195793368 -0.134074598551 -1.565799832344 9.758715629578
404 523.885220000000 -0.006391586736 -0.001065264456 -0.003195793368 -0.129286229610 -1.618471980095 9.811388015747
405 523.887217000000 -0.003195793368 -0.004261057824 -0.003195793368 -0.167593255639 -1.575376629829 9.768292427063
406 523.889219000000 -0.005326322280 -0.007456851192 -0.000000000000 -0.138862982392 -1.575376629829 9.768292427063
407 523.891217000000 -0.008522115648 -0.007456851192 -0.000000000000 -0.148439735174 -1.580165028572 9.787446022034
408 523.893217000000 -0.009587380104 -0.007456851192 -0.003195793368 -0.143651366234 -1.613683581352 9.753927230835
409 523.895219000000 -0.007456851192 -0.004261057824 -0.001065264456 -0.076614059508 -1.599318504333 9.801811218262
410 523.897218000000 -0.007456851192 -0.007456851192 -0.003195793368 -0.129286229610 -1.584953308105 9.706043243408
411 523.899216000000 -0.007456851192 -0.008522115648 -0.001065264456 -0.158016502857 -1.594530105591 9.816176414490
412 523.901226000000 -0.005326322280 -0.003195793368 -0.001065264456 -0.172381639481 -1.613683581352 9.763504028320
413 523.903220000000 -0.010652644560 -0.003195793368 -0.003195793368 -0.181958392262 -1.608895301819 9.801811218262
414 523.905220000000 -0.005326322280 -0.001065264456 -0.000000000000 -0.158016502857 -1.584953308105 9.744350433350
415 523.907219000000 -0.007456851192 -0.003195793368 -0.000000000000 -0.134074598551 -1.608895301819 9.787446022034
416 523.909220000000 -0.008522115648 -0.002130528912 -0.003195793368 -0.167593255639 -1.570588231087 9.792234420776
417 523.911224000000 -0.006391586736 -0.006391586736 -0.000000000000 -0.134074598551 -1.623260378838 9.768292427063
418 523.913221000000 -0.008522115648 -0.003195793368 -0.001065264456 -0.148439735174 -1.608895301819 9.763504028320
419 523.915223000000 -0.008522115648 -0.004261057824 -0.001065264456 -0.124497845769 -1.537069559097 9.749138832092
420 523.917221000000 -0.006391586736 -0.002130528912 -0.002130528912 -0.148439735174 -1.604106903076 9.787446022034
421 523.919221000000 -0.008522115648 -0.001065264456 -0.002130528912 -0.153228119016 -1.632837176323 9.729985237122
422 523.921219000000 -0.009587380104 -0.003195793368 -0.000000000000 -0.138862982392 -1.594530105591 9.758715629578
423 523.923220000000 -0.006391586736 -0.007456851192 -0.002130528912 -0.162804871798 -1.565799832344 9.758715629578
424 523.925219000000 -0.004261057824 -0.006391586736 -0.003195793368 -0.172381639481 -1.642413854599 9.682102203369
425 523.927220000000 -0.006391586736 -0.004261057824 -0.001065264456 -0.119709469378 -1.618471980095 9.792234420776
426 523.929220000000 -0.006391586736 -0.002130528912 -0.003195793368 -0.158016502857 -1.580165028572 9.734773635864
427 523.931220000000 -0.006391586736 -0.004261057824 -0.005326322280 -0.124497845769 -1.575376629829 9.744350433350
428 523.933225000000 -0.005326322280 -0.003195793368 -0.000000000000 -0.177170008421 -1.604106903076 9.768292427063
429 523.935218000000 -0.009587380104 -0.007456851192 -0.002130528912 -0.134074598551 -1.599318504333 9.682102203369
430 523.937217000000 -0.009587380104 -0.005326322280 -0.000000000000 -0.172381639481 -1.565799832344 9.768292427063
431 523.939218000000 -0.002130528912 -0.004261057824 -0.002130528912 -0.148439735174 -1.608895301819 9.820964813232
432 523.941217000000 -0.006391586736 -0.006391586736 -0.005326322280 -0.134074598551 -1.570588231087 9.710831642151
433 523.943217000000 -0.005326322280 -0.005326322280 -0.004261057824 -0.134074598551 -1.570588231087 9.830541610718
434 523.945218000000 -0.006391586736 -0.005326322280 -0.003195793368 -0.124497845769 -1.527492761612 9.797022819519
435 523.947216000000 -0.006391586736 -0.005326322280 -0.003195793368 -0.114921092987 -1.599318504333 9.797022819519
436 523.949217000000 -0.005326322280 -0.003195793368 -0.003195793368 -0.105344332755 -1.570588231087 9.782657623291
437 523.951222000000 -0.006391586736 -0.001065264456 -0.003195793368 -0.167593255639 -1.594530105591 9.792234420776
438 523.953220000000 -0.004261057824 -0.000000000000 -0.004261057824 -0.167593255639 -1.632837176323 9.729985237122
439 523.955219000000 -0.005326322280 -0.003195793368 -0.004261057824 -0.119709469378 -1.637625575066 9.849695205688
440 523.957222000000 -0.009587380104 -0.003195793368 -0.002130528912 -0.148439735174 -1.618471980095 9.797022819519
441 523.959219000000 -0.008522115648 -0.003195793368 -0.001065264456 -0.148439735174 -1.584953308105 9.825753211975
442 523.961221000000 -0.007456851192 -0.001065264456 -0.001065264456 -0.167593255639 -1.613683581352 9.734773635864
443 523.963221000000 -0.005326322280 -0.004261057824 -0.001065264456 -0.153228119016 -1.580165028572 9.787446022034
444 523.965219000000 -0.005326322280 -0.001065264456 -0.000000000000 -0.153228119016 -1.561011433601 9.782657623291
445 523.967220000000 -0.009587380104 -0.005326322280 -0.002130528912 -0.162804871798 -1.604106903076 9.773080825806
446 523.969218000000 -0.009587380104 -0.004261057824 -0.002130528912 -0.153228119016 -1.575376629829 9.792234420776
447 523.971217000000 -0.005326322280 -0.005326322280 -0.002130528912 -0.162804871798 -1.570588231087 9.758715629578
448 523.973216000000 -0.006391586736 -0.002130528912 -0.000000000000 -0.172381639481 -1.551434755325 9.763504028320
449 523.975217000000 -0.008522115648 -0.003195793368 -0.001065264456 -0.143651366234 -1.618471980095 9.830541610718
450 523.977220000000 -0.008522115648 -0.005326322280 -0.002130528912 -0.158016502857 -1.594530105591 9.720408439636
451 523.979221000000 -0.006391586736 -0.002130528912 -0.003195793368 -0.172381639481 -1.594530105591 9.797022819519
452 523.981220000000 -0.009587380104 -0.000000000000 -0.002130528912 -0.148439735174 -1.580165028572 9.744350433350
453 523.983221000000 -0.007456851192 -0.004261057824 -0.000000000000 -0.167593255639 -1.608895301819 9.806599617004
454 523.985220000000 -0.007456851192 -0.006391586736 -0.002130528912 -0.177170008421 -1.556223034859 9.729985237122
455 523.987220000000 -0.009587380104 -0.003195793368 -0.004261057824 -0.138862982392 -1.561011433601 9.758715629578
456 523.989221000000 -0.007456851192 -0.004261057824 -0.001065264456 -0.124497845769 -1.575376629829 9.753927230835
457 523.991220000000 -0.008522115648 -0.003195793368 -0.001065264456 -0.119709469378 -1.565799832344 9.744350433350
458 523.993221000000 -0.008522115648 -0.002130528912 -0.001065264456 -0.153228119016 -1.570588231087 9.734773635864
459 523.995221000000 -0.006391586736 -0.004261057824 -0.002130528912 -0.181958392262 -1.608895301819 9.787446022034
460 523.997219000000 -0.007456851192 -0.006391586736 -0.003195793368 -0.143651366234 -1.575376629829 9.749138832092
461 523.999217000000 -0.007456851192 -0.006391586736 -0.004261057824 -0.153228119016 -1.628048777580 9.758715629578
462 524.001217000000 -0.006391586736 -0.007456851192 -0.001065264456 -0.162804871798 -1.575376629829 9.768292427063
463 524.003204000000 -0.007456851192 -0.006391586736 0.001065264456 -0.172381639481 -1.570588231087 9.725196838379
464 524.005217000000 -0.006391586736 -0.007456851192 -0.000000000000 -0.143651366234 -1.594530105591 9.768292427063
465 524.007223000000 -0.007456851192 -0.006391586736 -0.001065264456 -0.148439735174 -1.599318504333 9.777869224548
466 524.009222000000 -0.007456851192 -0.002130528912 -0.004261057824 -0.172381639481 -1.575376629829 9.749138832092
467 524.011220000000 -0.006391586736 -0.004261057824 -0.004261057824 -0.124497845769 -1.594530105591 9.739562034607
468 524.013220000000 -0.007456851192 -0.005326322280 -0.002130528912 -0.162804871798 -1.565799832344 9.797022819519
469 524.015222000000 -0.006391586736 -0.003195793368 -0.002130528912 -0.134074598551 -1.623260378838 9.749138832092
470 524.017220000000 -0.007456851192 -0.001065264456 -0.001065264456 -0.158016502857 -1.594530105591 9.820964813232
471 524.019222000000 -0.010652644560 -0.005326322280 -0.002130528912 -0.167593255639 -1.589741706848 9.763504028320
472 524.021221000000 -0.006391586736 -0.005326322280 -0.002130528912 -0.148439735174 -1.551434755325 9.787446022034
473 524.023220000000 -0.008522115648 -0.005326322280 -0.001065264456 -0.153228119016 -1.604106903076 9.773080825806
474 524.025218000000 -0.008522115648 -0.005326322280 -0.002130528912 -0.143651366234 -1.628048777580 9.787446022034
475 524.027216000000 -0.003195793368 -0.004261057824 -0.002130528912 -0.124497845769 -1.599318504333 9.729985237122
476 524.029217000000 -0.007456851192 -0.003195793368 -0.003195793368 -0.105344332755 -1.628048777580 9.744350433350
477 524.031218000000 -0.010652644560 -0.002130528912 -0.002130528912 -0.177170008421 -1.604106903076 9.758715629578
478 524.033217000000 -0.009587380104 -0.001065264456 -0.001065264456 -0.100555956364 -1.584953308105 9.801811218262
479 524.035219000000 -0.009587380104 -0.003195793368 -0.004261057824 -0.148439735174 -1.608895301819 9.753927230835
480 524.037218000000 -0.009587380104 -0.004261057824 -0.003195793368 -0.124497845769 -1.546646356583 9.749138832092
481 524.039218000000 -0.009587380104 -0.004261057824 -0.001065264456 -0.105344332755 -1.565799832344 9.753927230835
482 524.041219000000 -0.010652644560 -0.006391586736 -0.001065264456 -0.124497845769 -1.584953308105 9.801811218262
483 524.043220000000 -0.009587380104 -0.002130528912 -0.001065264456 -0.158016502857 -1.589741706848 9.768292427063
484 524.045217000000 -0.009587380104 -0.002130528912 -0.004261057824 -0.134074598551 -1.580165028572 9.725196838379
485 524.047218000000 -0.005326322280 -0.003195793368 -0.003195793368 -0.158016502857 -1.580165028572 9.787446022034
486 524.049218000000 -0.010652644560 -0.005326322280 -0.002130528912 -0.148439735174 -1.570588231087 9.792234420776
487 524.051216000000 -0.008522115648 -0.004261057824 -0.003195793368 -0.158016502857 -1.551434755325 9.773080825806
488 524.053220000000 -0.006391586736 -0.005326322280 -0.003195793368 -0.167593255639 -1.546646356583 9.763504028320
489 524.055220000000 -0.005326322280 -0.003195793368 0.001065264456 -0.134074598551 -1.608895301819 9.749138832092
490 524.057216000000 -0.007456851192 -0.002130528912 0.002130528912 -0.110132709146 -1.604106903076 9.801811218262
491 524.059216000000 -0.005326322280 -0.005326322280 -0.000000000000 -0.162804871798 -1.584953308105 9.787446022034
492 524.061218000000 -0.008522115648 -0.004261057824 -0.003195793368 -0.143651366234 -1.556223034859 9.816176414490
493 524.063218000000 -0.009587380104 -0.004261057824 -0.004261057824 -0.119709469378 -1.589741706848 9.816176414490
494 524.065220000000 -0.009587380104 -0.004261057824 -0.001065264456 -0.153228119016 -1.608895301819 9.773080825806
495 524.067220000000 -0.006391586736 -0.006391586736 -0.000000000000 -0.162804871798 -1.613683581352 9.758715629578
496 524.069220000000 -0.008522115648 -0.006391586736 -0.001065264456 -0.158016502857 -1.613683581352 9.777869224548
497 524.071219000000 -0.008522115648 -0.005326322280 -0.002130528912 -0.110132709146 -1.589741706848 9.816176414490
498 524.073221000000 -0.006391586736 -0.007456851192 0.001065264456 -0.134074598551 -1.632837176323 9.801811218262
499 524.075221000000 -0.005326322280 -0.008522115648 -0.004261057824 -0.129286229610 -1.589741706848 9.782657623291
500 524.077221000000 -0.004261057824 -0.006391586736 -0.004261057824 -0.119709469378 -1.575376629829 9.734773635864
501 524.079220000000 -0.009587380104 -0.005326322280 -0.005326322280 -0.134074598551 -1.604106903076 9.753927230835
502 524.081220000000 -0.007456851192 -0.004261057824 -0.000000000000 -0.129286229610 -1.599318504333 9.749138832092
503 524.083220000000 -0.006391586736 -0.003195793368 0.001065264456 -0.143651366234 -1.565799832344 9.773080825806
504 524.085220000000 -0.004261057824 -0.001065264456 0.002130528912 -0.153228119016 -1.589741706848 9.734773635864
505 524.087217000000 -0.003195793368 -0.003195793368 -0.000000000000 -0.119709469378 -1.575376629829 9.753927230835
506 524.089217000000 -0.009587380104 -0.005326322280 -0.000000000000 -0.119709469378 -1.565799832344 9.701254844666
507 524.091217000000 -0.008522115648 -0.004261057824 -0.001065264456 -0.153228119016 -1.594530105591 9.787446022034
508 524.093218000000 -0.007456851192 -0.003195793368 -0.001065264456 -0.162804871798 -1.594530105591 9.787446022034
509 524.095222000000 -0.007456851192 -0.004261057824 -0.001065264456 -0.119709469378 -1.618471980095 9.763504028320
510 524.097221000000 -0.006391586736 -0.004261057824 -0.002130528912 -0.172381639481 -1.589741706848 9.801811218262
511 524.099221000000 -0.009587380104 -0.004261057824 -0.004261057824 -0.138862982392 -1.584953308105 9.777869224548
512 524.101220000000 -0.006391586736 -0.002130528912 -0.001065264456 -0.158016502857 -1.584953308105 9.753927230835
513 524.103221000000 -0.006391586736 -0.005326322280 -0.000000000000 -0.134074598551 -1.584953308105 9.696466445923
514 524.105220000000 -0.009587380104 -0.003195793368 -0.002130528912 -0.114921092987 -1.584953308105 9.768292427063
515 524.107219000000 -0.010652644560 -0.004261057824 -0.005326322280 -0.134074598551 -1.623260378838 9.797022819519
516 524.109221000000 -0.009587380104 -0.003195793368 -0.004261057824 -0.148439735174 -1.613683581352 9.729985237122
517 524.111221000000 -0.007456851192 -0.003195793368 -0.003195793368 -0.134074598551 -1.580165028572 9.749138832092
518 524.113221000000 -0.006391586736 -0.006391586736 -0.004261057824 -0.191535145044 -1.584953308105 9.797022819519
519 524.115222000000 -0.008522115648 -0.002130528912 -0.003195793368 -0.153228119016 -1.584953308105 9.739562034607
520 524.117221000000 -0.007456851192 -0.003195793368 -0.002130528912 -0.177170008421 -1.589741706848 9.729985237122
521 524.119223000000 -0.005326322280 -0.005326322280 -0.002130528912 -0.134074598551 -1.613683581352 9.777869224548
522 524.121220000000 -0.006391586736 -0.003195793368 -0.003195793368 -0.196323528886 -1.623260378838 9.806599617004
523 524.123219000000 -0.006391586736 -0.002130528912 0.002130528912 -0.167593255639 -1.623260378838 9.753927230835
524 524.125219000000 -0.006391586736 -0.005326322280 -0.001065264456 -0.186746776104 -1.608895301819 9.749138832092
525 524.127217000000 -0.006391586736 -0.006391586736 -0.001065264456 -0.134074598551 -1.618471980095 9.725196838379
526 524.129220000000 -0.004261057824 -0.003195793368 -0.003195793368 -0.138862982392 -1.589741706848 9.773080825806
527 524.131217000000 -0.005326322280 -0.002130528912 -0.003195793368 -0.153228119016 -1.599318504333 9.749138832092
528 524.133216000000 -0.009587380104 -0.004261057824 -0.002130528912 -0.172381639481 -1.604106903076 9.744350433350
529 524.135221000000 -0.009587380104 -0.004261057824 -0.002130528912 -0.167593255639 -1.613683581352 9.758715629578
530 524.137222000000 -0.007456851192 -0.005326322280 -0.005326322280 -0.153228119016 -1.570588231087 9.797022819519
531 524.139220000000 -0.007456851192 -0.005326322280 -0.005326322280 -0.153228119016 -1.570588231087 9.797022819519
532 524.141222000000 -0.005326322280 -0.003195793368 -0.002130528912 -0.143651366234 -1.594530105591 9.749138832092
533 524.143220000000 -0.009587380104 -0.003195793368 -0.000000000000 -0.138862982392 -1.584953308105 9.801811218262
534 524.145222000000 -0.009587380104 -0.005326322280 -0.003195793368 -0.134074598551 -1.570588231087 9.753927230835
535 524.147222000000 -0.008522115648 -0.006391586736 -0.002130528912 -0.124497845769 -1.561011433601 9.739562034607
536 524.149221000000 -0.006391586736 -0.002130528912 -0.001065264456 -0.186746776104 -1.594530105591 9.720408439636
537 524.151221000000 -0.004261057824 -0.002130528912 -0.003195793368 -0.172381639481 -1.599318504333 9.773080825806
538 524.153220000000 -0.006391586736 -0.003195793368 -0.003195793368 -0.167593255639 -1.618471980095 9.792234420776
539 524.155220000000 -0.007456851192 -0.002130528912 -0.002130528912 -0.143651366234 -1.575376629829 9.782657623291
540 524.157220000000 -0.005326322280 -0.003195793368 -0.003195793368 -0.143651366234 -1.599318504333 9.710831642151
541 524.159222000000 -0.007456851192 -0.002130528912 -0.003195793368 -0.129286229610 -1.580165028572 9.782657623291
542 524.161220000000 -0.007456851192 -0.004261057824 -0.001065264456 -0.119709469378 -1.599318504333 9.787446022034
543 524.163217000000 -0.006391586736 -0.002130528912 -0.002130528912 -0.143651366234 -1.608895301819 9.744350433350
544 524.165218000000 -0.008522115648 -0.003195793368 -0.000000000000 -0.134074598551 -1.575376629829 9.787446022034
545 524.167216000000 -0.007456851192 -0.007456851192 -0.001065264456 -0.158016502857 -1.570588231087 9.782657623291
546 524.169218000000 -0.003195793368 -0.007456851192 -0.003195793368 -0.143651366234 -1.618471980095 9.763504028320
547 524.171220000000 -0.005326322280 -0.004261057824 -0.001065264456 -0.129286229610 -1.565799832344 9.806599617004
548 524.173219000000 -0.006391586736 -0.004261057824 -0.000000000000 -0.158016502857 -1.575376629829 9.758715629578
549 524.175221000000 -0.007456851192 -0.005326322280 -0.002130528912 -0.162804871798 -1.570588231087 9.768292427063
550 524.177228000000 -0.007456851192 -0.004261057824 -0.003195793368 -0.148439735174 -1.584953308105 9.787446022034
551 524.179229000000 -0.007456851192 -0.001065264456 -0.003195793368 -0.158016502857 -1.599318504333 9.787446022034
552 524.181220000000 -0.008522115648 -0.004261057824 -0.002130528912 -0.158016502857 -1.589741706848 9.806599617004
553 524.183219000000 -0.010652644560 -0.004261057824 -0.002130528912 -0.119709469378 -1.565799832344 9.811388015747
554 524.185220000000 -0.007456851192 -0.003195793368 -0.003195793368 -0.153228119016 -1.575376629829 9.739562034607
555 524.187219000000 -0.007456851192 -0.005326322280 -0.004261057824 -0.100555956364 -1.599318504333 9.782657623291
556 524.189218000000 -0.008522115648 -0.002130528912 -0.006391586736 -0.086190819740 -1.589741706848 9.777869224548
557 524.191203000000 -0.006391586736 -0.004261057824 -0.004261057824 -0.134074598551 -1.618471980095 9.749138832092
558 524.193220000000 -0.006391586736 -0.004261057824 -0.003195793368 -0.114921092987 -1.570588231087 9.758715629578
559 524.195220000000 -0.007456851192 -0.003195793368 -0.003195793368 -0.138862982392 -1.561011433601 9.773080825806
560 524.197220000000 -0.004261057824 -0.003195793368 -0.002130528912 -0.129286229610 -1.589741706848 9.777869224548
561 524.199220000000 -0.009587380104 -0.003195793368 -0.000000000000 -0.148439735174 -1.546646356583 9.768292427063
562 524.201220000000 -0.010652644560 -0.005326322280 -0.002130528912 -0.158016502857 -1.584953308105 9.739562034607
563 524.203222000000 -0.007456851192 -0.005326322280 -0.004261057824 -0.172381639481 -1.594530105591 9.777869224548
564 524.205220000000 -0.009587380104 -0.003195793368 -0.003195793368 -0.134074598551 -1.618471980095 9.840118408203
565 524.207231000000 -0.012783173472 -0.002130528912 -0.005326322280 -0.153228119016 -1.642413854599 9.801811218262
566 524.209223000000 -0.010652644560 -0.003195793368 -0.005326322280 -0.119709469378 -1.570588231087 9.701254844666
567 524.211220000000 -0.006391586736 -0.004261057824 -0.003195793368 -0.119709469378 -1.584953308105 9.820964813232
568 524.213219000000 -0.006391586736 -0.006391586736 -0.003195793368 -0.138862982392 -1.599318504333 9.797022819519
569 524.215221000000 -0.007456851192 -0.002130528912 -0.001065264456 -0.129286229610 -1.580165028572 9.763504028320
570 524.217219000000 -0.006391586736 -0.004261057824 -0.002130528912 -0.162804871798 -1.589741706848 9.773080825806
571 524.219220000000 -0.006391586736 -0.005326322280 -0.002130528912 -0.153228119016 -1.599318504333 9.773080825806
572 524.221218000000 -0.005326322280 -0.003195793368 -0.003195793368 -0.134074598551 -1.608895301819 9.758715629578
573 524.223216000000 -0.006391586736 -0.004261057824 -0.003195793368 -0.181958392262 -1.580165028572 9.768292427063
574 524.225217000000 -0.006391586736 -0.004261057824 -0.003195793368 -0.143651366234 -1.623260378838 9.753927230835
575 524.227216000000 -0.007456851192 -0.004261057824 -0.003195793368 -0.153228119016 -1.613683581352 9.768292427063
576 524.229217000000 -0.007456851192 -0.003195793368 -0.000000000000 -0.138862982392 -1.580165028572 9.758715629578
577 524.231218000000 -0.008522115648 -0.001065264456 -0.003195793368 -0.129286229610 -1.599318504333 9.801811218262
578 524.233218000000 -0.008522115648 -0.001065264456 -0.003195793368 -0.129286229610 -1.599318504333 9.801811218262
579 524.235219000000 -0.008522115648 -0.006391586736 -0.003195793368 -0.191535145044 -1.580165028572 9.849695205688
580 524.237218000000 -0.007456851192 -0.004261057824 -0.003195793368 -0.158016502857 -1.604106903076 9.811388015747
581 524.239216000000 -0.006391586736 -0.002130528912 -0.001065264456 -0.134074598551 -1.561011433601 9.739562034607
582 524.241217000000 -0.007456851192 -0.003195793368 -0.003195793368 -0.162804871798 -1.561011433601 9.739562034607
583 524.243224000000 -0.008522115648 -0.004261057824 -0.001065264456 -0.162804871798 -1.613683581352 9.777869224548
584 524.245220000000 -0.008522115648 -0.005326322280 -0.003195793368 -0.162804871798 -1.584953308105 9.729985237122
585 524.247221000000 -0.008522115648 -0.005326322280 -0.004261057824 -0.119709469378 -1.541857957840 9.777869224548
586 524.249219000000 -0.007456851192 -0.005326322280 -0.003195793368 -0.124497845769 -1.589741706848 9.801811218262
587 524.251217000000 -0.003195793368 -0.005326322280 -0.002130528912 -0.172381639481 -1.623260378838 9.806599617004
588 524.253217000000 -0.005326322280 -0.006391586736 -0.001065264456 -0.148439735174 -1.613683581352 9.706043243408
589 524.255217000000 -0.006391586736 -0.004261057824 -0.000000000000 -0.148439735174 -1.594530105591 9.820964813232
590 524.257218000000 -0.005326322280 -0.003195793368 -0.001065264456 -0.110132709146 -1.599318504333 9.806599617004
591 524.259228000000 -0.007456851192 -0.004261057824 -0.001065264456 -0.134074598551 -1.599318504333 9.749138832092
592 524.261223000000 -0.009587380104 -0.003195793368 0.001065264456 -0.124497845769 -1.594530105591 9.792234420776
593 524.263218000000 -0.006391586736 -0.001065264456 -0.003195793368 -0.143651366234 -1.623260378838 9.777869224548
594 524.265221000000 -0.005326322280 -0.004261057824 -0.001065264456 -0.153228119016 -1.551434755325 9.820964813232
595 524.267220000000 -0.006391586736 -0.002130528912 -0.004261057824 -0.162804871798 -1.565799832344 9.753927230835
596 524.269222000000 -0.008522115648 -0.002130528912 -0.004261057824 -0.138862982392 -1.589741706848 9.753927230835
597 524.271223000000 -0.005326322280 -0.006391586736 -0.001065264456 -0.081402435899 -1.613683581352 9.811388015747
598 524.273219000000 -0.007456851192 -0.004261057824 -0.002130528912 -0.143651366234 -1.623260378838 9.773080825806
599 524.275227000000 -0.009587380104 -0.004261057824 -0.003195793368 -0.129286229610 -1.594530105591 9.792234420776
600 524.277220000000 -0.005326322280 -0.003195793368 -0.005326322280 -0.138862982392 -1.628048777580 9.763504028320
601 524.279221000000 -0.006391586736 -0.002130528912 -0.003195793368 -0.143651366234 -1.570588231087 9.763504028320
602 524.281220000000 -0.005326322280 -0.004261057824 -0.004261057824 -0.143651366234 -1.570588231087 9.758715629578
603 524.283222000000 -0.004261057824 -0.002130528912 0.001065264456 -0.119709469378 -1.580165028572 9.782657623291
604 524.285219000000 -0.010652644560 -0.002130528912 0.001065264456 -0.148439735174 -1.618471980095 9.801811218262
605 524.287219000000 -0.005326322280 -0.004261057824 -0.003195793368 -0.167593255639 -1.580165028572 9.773080825806
606 524.289216000000 -0.003195793368 -0.001065264456 -0.004261057824 -0.162804871798 -1.599318504333 9.797022819519
607 524.291217000000 -0.007456851192 -0.002130528912 -0.003195793368 -0.172381639481 -1.556223034859 9.792234420776
608 524.293217000000 -0.008522115648 -0.004261057824 -0.001065264456 -0.134074598551 -1.546646356583 9.720408439636
609 524.295221000000 -0.009587380104 -0.003195793368 -0.003195793368 -0.143651366234 -1.618471980095 9.797022819519
610 524.297219000000 -0.007456851192 -0.006391586736 -0.004261057824 -0.148439735174 -1.565799832344 9.777869224548
611 524.299220000000 -0.008522115648 -0.006391586736 -0.004261057824 -0.134074598551 -1.608895301819 9.816176414490
612 524.301221000000 -0.007456851192 -0.006391586736 -0.004261057824 -0.134074598551 -1.570588231087 9.777869224548
613 524.303220000000 -0.005326322280 -0.004261057824 -0.004261057824 -0.162804871798 -1.575376629829 9.787446022034
614 524.305219000000 -0.008522115648 -0.003195793368 0.001065264456 -0.143651366234 -1.613683581352 9.758715629578
615 524.307219000000 -0.007456851192 -0.005326322280 0.001065264456 -0.153228119016 -1.628048777580 9.797022819519
616 524.309220000000 -0.007456851192 -0.005326322280 -0.003195793368 -0.129286229610 -1.608895301819 9.797022819519
617 524.311223000000 -0.007456851192 -0.004261057824 -0.003195793368 -0.114921092987 -1.599318504333 9.782657623291
618 524.313222000000 -0.006391586736 -0.004261057824 -0.002130528912 -0.138862982392 -1.589741706848 9.787446022034
619 524.315222000000 -0.008522115648 -0.003195793368 -0.001065264456 -0.172381639481 -1.589741706848 9.797022819519
620 524.317219000000 -0.007456851192 -0.004261057824 -0.000000000000 -0.167593255639 -1.618471980095 9.835330009460
621 524.319217000000 -0.005326322280 -0.005326322280 -0.003195793368 -0.129286229610 -1.565799832344 9.725196838379
622 524.321218000000 -0.004261057824 -0.004261057824 -0.003195793368 -0.110132709146 -1.608895301819 9.801811218262
623 524.323218000000 -0.007456851192 -0.003195793368 -0.003195793368 -0.162804871798 -1.589741706848 9.777869224548
624 524.325217000000 -0.004261057824 -0.004261057824 -0.001065264456 -0.186746776104 -1.580165028572 9.744350433350
625 524.327221000000 -0.004261057824 -0.004261057824 -0.001065264456 -0.186746776104 -1.580165028572 9.744350433350
626 524.329220000000 -0.009587380104 -0.004261057824 -0.003195793368 -0.119709469378 -1.575376629829 9.792234420776
627 524.331221000000 -0.008522115648 -0.003195793368 -0.001065264456 -0.167593255639 -1.570588231087 9.696466445923
628 524.333219000000 -0.009587380104 -0.004261057824 -0.002130528912 -0.138862982392 -1.565799832344 9.773080825806
629 524.335222000000 -0.008522115648 -0.004261057824 -0.003195793368 -0.158016502857 -1.556223034859 9.792234420776
630 524.337221000000 -0.008522115648 -0.004261057824 -0.002130528912 -0.129286229610 -1.584953308105 9.744350433350
631 524.339220000000 -0.008522115648 -0.005326322280 -0.001065264456 -0.138862982392 -1.594530105591 9.720408439636
632 524.341221000000 -0.012783173472 -0.006391586736 -0.001065264456 -0.143651366234 -1.556223034859 9.782657623291
633 524.343220000000 -0.008522115648 -0.006391586736 -0.001065264456 -0.148439735174 -1.584953308105 9.777869224548
634 524.345220000000 -0.006391586736 -0.004261057824 -0.000000000000 -0.162804871798 -1.618471980095 9.753927230835
635 524.347220000000 -0.005326322280 -0.004261057824 -0.001065264456 -0.162804871798 -1.580165028572 9.729985237122
636 524.349221000000 -0.007456851192 -0.004261057824 0.002130528912 -0.143651366234 -1.618471980095 9.801811218262
637 524.351217000000 -0.006391586736 -0.004261057824 -0.002130528912 -0.172381639481 -1.561011433601 9.749138832092
638 524.353217000000 -0.004261057824 -0.005326322280 -0.002130528912 -0.114921092987 -1.589741706848 9.758715629578
639 524.355220000000 -0.006391586736 -0.004261057824 -0.000000000000 -0.153228119016 -1.589741706848 9.811388015747
640 524.357218000000 -0.006391586736 -0.006391586736 -0.004261057824 -0.158016502857 -1.580165028572 9.830541610718
641 524.359222000000 -0.007456851192 -0.002130528912 -0.001065264456 -0.162804871798 -1.575376629829 9.763504028320
642 524.361222000000 -0.007456851192 -0.000000000000 -0.003195793368 -0.143651366234 -1.575376629829 9.758715629578
643 524.363220000000 -0.008522115648 -0.003195793368 -0.000000000000 -0.158016502857 -1.608895301819 9.777869224548
644 524.365222000000 -0.008522115648 -0.003195793368 0.003195793368 -0.143651366234 -1.594530105591 9.801811218262
645 524.367220000000 -0.009587380104 -0.004261057824 0.001065264456 -0.114921092987 -1.589741706848 9.753927230835
646 524.369222000000 -0.006391586736 -0.004261057824 -0.001065264456 -0.114921092987 -1.594530105591 9.758715629578
647 524.371218000000 -0.006391586736 -0.004261057824 -0.001065264456 -0.186746776104 -1.604106903076 9.797022819519
648 524.373223000000 -0.005326322280 -0.005326322280 -0.002130528912 -0.181958392262 -1.594530105591 9.749138832092
649 524.375222000000 -0.005326322280 -0.003195793368 -0.002130528912 -0.134074598551 -1.565799832344 9.792234420776
650 524.377218000000 -0.005326322280 -0.005326322280 -0.000000000000 -0.114921092987 -1.589741706848 9.773080825806
651 524.379224000000 -0.010652644560 -0.005326322280 -0.002130528912 -0.119709469378 -1.570588231087 9.710831642151
652 524.381220000000 -0.008522115648 -0.002130528912 -0.002130528912 -0.129286229610 -1.594530105591 9.801811218262
653 524.383221000000 -0.007456851192 -0.004261057824 -0.004261057824 -0.143651366234 -1.565799832344 9.739562034607
654 524.385222000000 -0.007456851192 -0.004261057824 -0.006391586736 -0.177170008421 -1.637625575066 9.725196838379
655 524.387220000000 -0.007456851192 -0.004261057824 -0.004261057824 -0.153228119016 -1.565799832344 9.835330009460
656 524.389218000000 -0.008522115648 -0.005326322280 -0.001065264456 -0.167593255639 -1.594530105591 9.749138832092
657 524.391217000000 -0.007456851192 -0.007456851192 -0.005326322280 -0.153228119016 -1.570588231087 9.773080825806
658 524.393218000000 -0.008522115648 -0.005326322280 -0.002130528912 -0.143651366234 -1.594530105591 9.806599617004
659 524.395220000000 -0.007456851192 -0.004261057824 -0.002130528912 -0.148439735174 -1.584953308105 9.777869224548
660 524.397218000000 -0.006391586736 -0.003195793368 -0.004261057824 -0.172381639481 -1.613683581352 9.758715629578
661 524.399219000000 -0.005326322280 -0.004261057824 -0.002130528912 -0.162804871798 -1.584953308105 9.753927230835
662 524.401216000000 -0.008522115648 -0.003195793368 -0.003195793368 -0.196323528886 -1.551434755325 9.782657623291
663 524.403217000000 -0.008522115648 -0.004261057824 -0.004261057824 -0.124497845769 -1.580165028572 9.768292427063
664 524.405218000000 -0.009587380104 -0.005326322280 0.001065264456 -0.110132709146 -1.623260378838 9.811388015747
665 524.407217000000 -0.008522115648 -0.005326322280 -0.001065264456 -0.138862982392 -1.613683581352 9.773080825806
666 524.409220000000 -0.009587380104 -0.004261057824 -0.001065264456 -0.148439735174 -1.584953308105 9.725196838379
667 524.411218000000 -0.009587380104 -0.003195793368 -0.002130528912 -0.143651366234 -1.584953308105 9.801811218262
668 524.413219000000 -0.007456851192 -0.004261057824 -0.003195793368 -0.162804871798 -1.580165028572 9.729985237122
669 524.415220000000 -0.007456851192 -0.004261057824 -0.001065264456 -0.162804871798 -1.628048777580 9.768292427063
670 524.417219000000 -0.009587380104 -0.003195793368 -0.003195793368 -0.138862982392 -1.608895301819 9.777869224548
671 524.419217000000 -0.007456851192 -0.003195793368 -0.003195793368 -0.086190819740 -1.632837176323 9.806599617004
672 524.421223000000 -0.007456851192 -0.004261057824 -0.004261057824 -0.148439735174 -1.584953308105 9.744350433350
673 524.423223000000 -0.006391586736 -0.004261057824 -0.003195793368 -0.119709469378 -1.618471980095 9.801811218262
674 524.425216000000 -0.007456851192 -0.004261057824 -0.004261057824 -0.134074598551 -1.623260378838 9.787446022034
675 524.427218000000 -0.009587380104 -0.002130528912 0.002130528912 -0.162804871798 -1.599318504333 9.715620040894
676 524.429217000000 -0.006391586736 -0.003195793368 0.003195793368 -0.158016502857 -1.575376629829 9.720408439636
677 524.431217000000 -0.006391586736 -0.002130528912 -0.001065264456 -0.138862982392 -1.613683581352 9.725196838379
678 524.433218000000 -0.008522115648 -0.003195793368 -0.002130528912 -0.167593255639 -1.608895301819 9.797022819519
679 524.435219000000 -0.005326322280 -0.002130528912 -0.000000000000 -0.148439735174 -1.608895301819 9.844906806946
680 524.437220000000 -0.007456851192 -0.003195793368 -0.005326322280 -0.153228119016 -1.589741706848 9.710831642151
681 524.439219000000 -0.008522115648 -0.005326322280 -0.002130528912 -0.153228119016 -1.580165028572 9.797022819519
682 524.441221000000 -0.007456851192 -0.005326322280 -0.002130528912 -0.172381639481 -1.599318504333 9.806599617004
683 524.443221000000 -0.006391586736 -0.002130528912 -0.005326322280 -0.148439735174 -1.613683581352 9.792234420776
684 524.445221000000 -0.008522115648 -0.003195793368 -0.001065264456 -0.153228119016 -1.565799832344 9.739562034607
685 524.447240000000 -0.005326322280 -0.002130528912 -0.002130528912 -0.153228119016 -1.604106903076 9.835330009460
686 524.449222000000 -0.006391586736 -0.002130528912 -0.001065264456 -0.167593255639 -1.589741706848 9.753927230835
687 524.451220000000 -0.007456851192 -0.002130528912 -0.001065264456 -0.129286229610 -1.604106903076 9.744350433350
688 524.453219000000 -0.007456851192 -0.004261057824 -0.001065264456 -0.153228119016 -1.589741706848 9.787446022034
689 524.455221000000 -0.005326322280 -0.006391586736 -0.002130528912 -0.119709469378 -1.575376629829 9.691679000854
690 524.457220000000 -0.008522115648 -0.003195793368 -0.001065264456 -0.162804871798 -1.580165028572 9.758715629578
691 524.459216000000 -0.008522115648 -0.004261057824 -0.002130528912 -0.110132709146 -1.589741706848 9.811388015747
692 524.461217000000 -0.006391586736 -0.003195793368 -0.001065264456 -0.129286229610 -1.613683581352 9.768292427063
693 524.463222000000 -0.004261057824 -0.001065264456 -0.000000000000 -0.138862982392 -1.604106903076 9.782657623291
694 524.465221000000 -0.006391586736 -0.004261057824 -0.003195793368 -0.143651366234 -1.570588231087 9.706043243408
695 524.467217000000 -0.006391586736 -0.006391586736 -0.002130528912 -0.148439735174 -1.580165028572 9.787446022034
696 524.469220000000 -0.010652644560 -0.007456851192 -0.005326322280 -0.119709469378 -1.589741706848 9.825753211975
697 524.471222000000 -0.010652644560 -0.007456851192 -0.005326322280 -0.119709469378 -1.589741706848 9.825753211975
698 524.473220000000 -0.007456851192 -0.000000000000 -0.001065264456 -0.153228119016 -1.580165028572 9.753927230835
699 524.475221000000 -0.006391586736 -0.002130528912 -0.000000000000 -0.162804871798 -1.599318504333 9.729985237122
700 524.477223000000 -0.009587380104 -0.001065264456 -0.004261057824 -0.134074598551 -1.580165028572 9.830541610718
701 524.479221000000 -0.009587380104 -0.004261057824 -0.004261057824 -0.153228119016 -1.561011433601 9.763504028320
702 524.481221000000 -0.006391586736 -0.004261057824 -0.005326322280 -0.153228119016 -1.599318504333 9.734773635864
703 524.483220000000 -0.005326322280 -0.002130528912 -0.003195793368 -0.167593255639 -1.580165028572 9.773080825806
704 524.485219000000 -0.008522115648 -0.003195793368 -0.001065264456 -0.124497845769 -1.604106903076 9.787446022034
705 524.487220000000 -0.008522115648 -0.004261057824 0.001065264456 -0.138862982392 -1.608895301819 9.739562034607
706 524.489219000000 -0.008522115648 -0.006391586736 -0.000000000000 -0.124497845769 -1.594530105591 9.753927230835
707 524.491222000000 -0.005326322280 -0.002130528912 -0.002130528912 -0.134074598551 -1.584953308105 9.739562034607
708 524.493217000000 -0.009587380104 -0.001065264456 -0.001065264456 -0.143651366234 -1.613683581352 9.782657623291
709 524.495219000000 -0.005326322280 -0.003195793368 0.002130528912 -0.148439735174 -1.565799832344 9.758715629578
710 524.497218000000 -0.006391586736 -0.005326322280 0.002130528912 -0.162804871798 -1.580165028572 9.773080825806
711 524.499218000000 -0.007456851192 -0.005326322280 -0.002130528912 -0.138862982392 -1.584953308105 9.792234420776
712 524.501217000000 -0.006391586736 -0.005326322280 -0.004261057824 -0.215477049351 -1.589741706848 9.820964813232
713 524.503218000000 -0.006391586736 -0.006391586736 -0.003195793368 -0.114921092987 -1.618471980095 9.715620040894
714 524.505216000000 -0.007456851192 -0.008522115648 -0.000000000000 -0.162804871798 -1.565799832344 9.777869224548
715 524.507222000000 -0.005326322280 -0.002130528912 -0.002130528912 -0.148439735174 -1.594530105591 9.806599617004
716 524.509219000000 -0.007456851192 -0.004261057824 -0.004261057824 -0.172381639481 -1.594530105591 9.753927230835
717 524.511220000000 -0.007456851192 -0.006391586736 0.001065264456 -0.095767572522 -1.628048777580 9.744350433350
718 524.513220000000 -0.006391586736 -0.007456851192 -0.001065264456 -0.158016502857 -1.594530105591 9.801811218262
719 524.515223000000 -0.006391586736 -0.007456851192 -0.001065264456 -0.158016502857 -1.594530105591 9.801811218262
720 524.517220000000 -0.005326322280 -0.002130528912 -0.000000000000 -0.124497845769 -1.604106903076 9.787446022034
721 524.519226000000 -0.008522115648 -0.003195793368 -0.002130528912 -0.172381639481 -1.594530105591 9.777869224548
722 524.521222000000 -0.007456851192 -0.004261057824 -0.003195793368 -0.158016502857 -1.575376629829 9.787446022034
723 524.523220000000 -0.007456851192 -0.003195793368 0.001065264456 -0.134074598551 -1.575376629829 9.701254844666
724 524.525222000000 -0.006391586736 -0.003195793368 0.001065264456 -0.148439735174 -1.599318504333 9.753927230835
725 524.527221000000 -0.005326322280 -0.003195793368 0.003195793368 -0.114921092987 -1.618471980095 9.792234420776
726 524.529218000000 -0.007456851192 -0.004261057824 -0.004261057824 -0.148439735174 -1.575376629829 9.758715629578
727 524.531218000000 -0.007456851192 -0.005326322280 -0.004261057824 -0.148439735174 -1.608895301819 9.777869224548
728 524.533217000000 -0.006391586736 -0.006391586736 -0.002130528912 -0.201111912727 -1.618471980095 9.739562034607
729 524.535219000000 -0.006391586736 -0.007456851192 -0.001065264456 -0.134074598551 -1.589741706848 9.725196838379
730 524.537219000000 -0.011717909016 -0.005326322280 -0.000000000000 -0.162804871798 -1.608895301819 9.768292427063
731 524.539220000000 -0.008522115648 -0.007456851192 0.002130528912 -0.158016502857 -1.580165028572 9.734773635864
732 524.541220000000 -0.006391586736 -0.002130528912 -0.000000000000 -0.181958392262 -1.503550887108 9.739562034607
733 524.543223000000 -0.005326322280 -0.004261057824 -0.002130528912 -0.148439735174 -1.613683581352 9.753927230835
734 524.545221000000 -0.008522115648 -0.005326322280 -0.003195793368 -0.162804871798 -1.570588231087 9.753927230835
735 524.547221000000 -0.007456851192 -0.003195793368 -0.002130528912 -0.143651366234 -1.589741706848 9.782657623291
736 524.549220000000 -0.008522115648 -0.003195793368 -0.003195793368 -0.167593255639 -1.604106903076 9.787446022034
737 524.551220000000 -0.008522115648 -0.005326322280 -0.003195793368 -0.143651366234 -1.594530105591 9.792234420776
738 524.553245000000 -0.006391586736 -0.004261057824 -0.003195793368 -0.119709469378 -1.570588231087 9.816176414490
739 524.555222000000 -0.005326322280 -0.004261057824 0.001065264456 -0.138862982392 -1.580165028572 9.787446022034
740 524.557219000000 -0.006391586736 -0.003195793368 0.001065264456 -0.153228119016 -1.565799832344 9.816176414490
741 524.559217000000 -0.007456851192 -0.005326322280 -0.001065264456 -0.158016502857 -1.618471980095 9.801811218262
742 524.561219000000 -0.008522115648 -0.005326322280 -0.002130528912 -0.114921092987 -1.599318504333 9.777869224548
743 524.563218000000 -0.011717909016 -0.007456851192 -0.005326322280 -0.138862982392 -1.594530105591 9.806599617004
744 524.565221000000 -0.007456851192 -0.006391586736 -0.004261057824 -0.124497845769 -1.565799832344 9.773080825806
745 524.567221000000 -0.005326322280 -0.007456851192 -0.001065264456 -0.177170008421 -1.589741706848 9.782657623291
746 524.569225000000 -0.005326322280 -0.003195793368 -0.003195793368 -0.114921092987 -1.623260378838 9.768292427063
747 524.571222000000 -0.004261057824 -0.003195793368 -0.000000000000 -0.153228119016 -1.556223034859 9.725196838379
748 524.573223000000 -0.006391586736 -0.003195793368 0.001065264456 -0.143651366234 -1.623260378838 9.768292427063
749 524.575234000000 -0.011717909016 -0.005326322280 -0.001065264456 -0.138862982392 -1.584953308105 9.753927230835
750 524.577220000000 -0.005326322280 -0.004261057824 -0.002130528912 -0.186746776104 -1.575376629829 9.720408439636
751 524.579219000000 -0.004261057824 -0.005326322280 -0.001065264456 -0.143651366234 -1.613683581352 9.777869224548
752 524.581220000000 -0.008522115648 -0.006391586736 -0.002130528912 -0.158016502857 -1.599318504333 9.792234420776
753 524.583217000000 -0.009587380104 -0.004261057824 -0.002130528912 -0.148439735174 -1.570588231087 9.758715629578
754 524.585217000000 -0.008522115648 -0.003195793368 -0.000000000000 -0.148439735174 -1.604106903076 9.820964813232
755 524.587217000000 -0.008522115648 -0.004261057824 -0.003195793368 -0.158016502857 -1.589741706848 9.720408439636
756 524.589217000000 -0.009587380104 -0.005326322280 -0.003195793368 -0.148439735174 -1.580165028572 9.801811218262
757 524.591216000000 -0.004261057824 -0.003195793368 -0.003195793368 -0.105344332755 -1.565799832344 9.840118408203
758 524.593224000000 -0.002130528912 -0.006391586736 -0.000000000000 -0.158016502857 -1.584953308105 9.825753211975
759 524.595222000000 -0.005326322280 -0.003195793368 -0.000000000000 -0.143651366234 -1.575376629829 9.734773635864
760 524.597221000000 -0.006391586736 0.001065264456 -0.005326322280 -0.148439735174 -1.570588231087 9.801811218262
761 524.599221000000 -0.006391586736 0.001065264456 -0.005326322280 -0.148439735174 -1.570588231087 9.801811218262
762 524.601221000000 -0.006391586736 -0.005326322280 -0.003195793368 -0.177170008421 -1.608895301819 9.701254844666
763 524.603219000000 -0.006391586736 -0.006391586736 -0.002130528912 -0.177170008421 -1.632837176323 9.758715629578
764 524.605218000000 -0.009587380104 -0.004261057824 -0.002130528912 -0.148439735174 -1.584953308105 9.734773635864
765 524.607218000000 -0.009587380104 -0.003195793368 -0.001065264456 -0.119709469378 -1.604106903076 9.806599617004
766 524.609218000000 -0.007456851192 -0.004261057824 -0.003195793368 -0.129286229610 -1.599318504333 9.758715629578
767 524.611219000000 -0.006391586736 -0.002130528912 0.001065264456 -0.138862982392 -1.580165028572 9.701254844666
768 524.613218000000 -0.006391586736 -0.003195793368 0.001065264456 -0.148439735174 -1.580165028572 9.797022819519
769 524.615219000000 -0.007456851192 -0.003195793368 -0.000000000000 -0.172381639481 -1.589741706848 9.773080825806
770 524.617221000000 -0.009587380104 -0.002130528912 -0.002130528912 -0.129286229610 -1.575376629829 9.801811218262
771 524.619219000000 -0.004261057824 -0.004261057824 0.003195793368 -0.114921092987 -1.565799832344 9.782657623291
772 524.621219000000 -0.004261057824 -0.002130528912 0.001065264456 -0.148439735174 -1.589741706848 9.797022819519
773 524.623219000000 -0.009587380104 -0.004261057824 -0.004261057824 -0.148439735174 -1.608895301819 9.744350433350
774 524.625220000000 -0.007456851192 -0.002130528912 -0.004261057824 -0.158016502857 -1.580165028572 9.797022819519
775 524.627217000000 -0.007456851192 -0.005326322280 -0.004261057824 -0.129286229610 -1.575376629829 9.749138832092
776 524.629217000000 -0.006391586736 -0.004261057824 -0.003195793368 -0.124497845769 -1.604106903076 9.777869224548
777 524.631217000000 -0.009587380104 -0.002130528912 -0.002130528912 -0.119709469378 -1.565799832344 9.792234420776
778 524.633216000000 -0.009587380104 -0.004261057824 -0.001065264456 -0.124497845769 -1.580165028572 9.753927230835
779 524.635220000000 -0.007456851192 -0.005326322280 -0.002130528912 -0.138862982392 -1.584953308105 9.768292427063
780 524.637217000000 -0.008522115648 -0.005326322280 -0.001065264456 -0.143651366234 -1.599318504333 9.744350433350
781 524.639219000000 -0.008522115648 -0.005326322280 -0.001065264456 -0.143651366234 -1.599318504333 9.744350433350
782 524.641220000000 -0.006391586736 -0.004261057824 -0.004261057824 -0.143651366234 -1.604106903076 9.682102203369
783 524.643220000000 -0.008522115648 -0.002130528912 -0.004261057824 -0.143651366234 -1.589741706848 9.763504028320
784 524.645220000000 -0.006391586736 -0.005326322280 -0.001065264456 -0.177170008421 -1.604106903076 9.806599617004
785 524.647229000000 -0.007456851192 -0.003195793368 -0.001065264456 -0.158016502857 -1.556223034859 9.806599617004
786 524.649221000000 -0.009587380104 -0.003195793368 -0.003195793368 -0.181958392262 -1.618471980095 9.825753211975
787 524.651222000000 -0.004261057824 -0.004261057824 -0.003195793368 -0.177170008421 -1.594530105591 9.739562034607
788 524.653218000000 -0.008522115648 -0.004261057824 -0.003195793368 -0.153228119016 -1.604106903076 9.830541610718
789 524.655222000000 -0.007456851192 -0.003195793368 -0.000000000000 -0.153228119016 -1.613683581352 9.749138832092
790 524.657221000000 -0.004261057824 -0.004261057824 -0.000000000000 -0.158016502857 -1.584953308105 9.725196838379
791 524.659222000000 -0.004261057824 -0.004261057824 -0.000000000000 -0.158016502857 -1.584953308105 9.725196838379
792 524.661219000000 -0.006391586736 -0.004261057824 -0.001065264456 -0.162804871798 -1.589741706848 9.763504028320
793 524.663218000000 -0.006391586736 -0.003195793368 -0.001065264456 -0.148439735174 -1.584953308105 9.801811218262
794 524.665221000000 -0.007456851192 -0.002130528912 -0.001065264456 -0.172381639481 -1.584953308105 9.777869224548
795 524.667228000000 -0.009587380104 -0.002130528912 -0.001065264456 -0.129286229610 -1.604106903076 9.749138832092
796 524.669220000000 -0.007456851192 -0.007456851192 -0.002130528912 -0.129286229610 -1.623260378838 9.787446022034
797 524.671226000000 -0.007456851192 -0.005326322280 -0.005326322280 -0.148439735174 -1.570588231087 9.763504028320
798 524.673219000000 -0.007456851192 -0.004261057824 -0.002130528912 -0.143651366234 -1.608895301819 9.758715629578
799 524.675223000000 -0.008522115648 -0.004261057824 -0.002130528912 -0.181958392262 -1.570588231087 9.725196838379
800 524.677221000000 -0.008522115648 -0.003195793368 -0.001065264456 -0.167593255639 -1.604106903076 9.753927230835
801 524.679218000000 -0.006391586736 -0.003195793368 -0.002130528912 -0.138862982392 -1.599318504333 9.801811218262
802 524.681219000000 -0.009587380104 -0.004261057824 -0.003195793368 -0.134074598551 -1.589741706848 9.768292427063
803 524.683219000000 -0.008522115648 -0.004261057824 -0.001065264456 -0.138862982392 -1.565799832344 9.787446022034
804 524.685219000000 -0.005326322280 -0.004261057824 -0.000000000000 -0.172381639481 -1.628048777580 9.768292427063
805 524.687219000000 -0.004261057824 -0.003195793368 -0.002130528912 -0.148439735174 -1.599318504333 9.744350433350
806 524.689219000000 -0.005326322280 -0.003195793368 -0.002130528912 -0.134074598551 -1.551434755325 9.782657623291
807 524.691218000000 -0.005326322280 -0.003195793368 -0.001065264456 -0.153228119016 -1.580165028572 9.734773635864
808 524.693218000000 -0.005326322280 -0.004261057824 -0.004261057824 -0.119709469378 -1.594530105591 9.816176414490
809 524.695218000000 -0.005326322280 -0.002130528912 -0.001065264456 -0.134074598551 -1.589741706848 9.782657623291
810 524.697218000000 -0.007456851192 -0.004261057824 -0.002130528912 -0.129286229610 -1.584953308105 9.768292427063
811 524.699221000000 -0.006391586736 -0.004261057824 -0.000000000000 -0.100555956364 -1.584953308105 9.782657623291
812 524.701220000000 -0.006391586736 -0.003195793368 -0.002130528912 -0.158016502857 -1.589741706848 9.825753211975
813 524.703220000000 -0.008522115648 -0.005326322280 -0.004261057824 -0.110132709146 -1.584953308105 9.753927230835
814 524.705220000000 -0.010652644560 -0.006391586736 -0.004261057824 -0.110132709146 -1.580165028572 9.820964813232
815 524.707219000000 -0.006391586736 -0.005326322280 -0.004261057824 -0.153228119016 -1.613683581352 9.787446022034
816 524.709221000000 -0.006391586736 -0.005326322280 -0.003195793368 -0.191535145044 -1.570588231087 9.811388015747
817 524.711219000000 -0.006391586736 -0.004261057824 -0.001065264456 -0.143651366234 -1.599318504333 9.758715629578
818 524.713218000000 -0.009587380104 -0.005326322280 -0.002130528912 -0.124497845769 -1.570588231087 9.777869224548
819 524.715225000000 -0.010652644560 -0.006391586736 -0.003195793368 -0.134074598551 -1.575376629829 9.758715629578
820 524.717220000000 -0.008522115648 -0.004261057824 -0.001065264456 -0.138862982392 -1.561011433601 9.758715629578
821 524.719224000000 -0.009587380104 -0.006391586736 -0.002130528912 -0.143651366234 -1.584953308105 9.725196838379
822 524.721220000000 -0.007456851192 -0.007456851192 -0.001065264456 -0.167593255639 -1.628048777580 9.777869224548
823 524.723218000000 -0.008522115648 -0.006391586736 -0.003195793368 -0.158016502857 -1.604106903076 9.830541610718
824 524.725217000000 -0.009587380104 -0.004261057824 -0.002130528912 -0.181958392262 -1.594530105591 9.706043243408
825 524.727216000000 -0.006391586736 -0.003195793368 -0.003195793368 -0.158016502857 -1.604106903076 9.763504028320
826 524.729218000000 -0.003195793368 -0.006391586736 -0.002130528912 -0.143651366234 -1.551434755325 9.749138832092
827 524.731221000000 -0.006391586736 -0.006391586736 -0.002130528912 -0.162804871798 -1.580165028572 9.777869224548
828 524.733222000000 -0.006391586736 -0.004261057824 -0.004261057824 -0.138862982392 -1.565799832344 9.782657623291
829 524.735223000000 -0.007456851192 -0.006391586736 -0.002130528912 -0.148439735174 -1.575376629829 9.811388015747
830 524.737223000000 -0.006391586736 -0.005326322280 -0.004261057824 -0.138862982392 -1.604106903076 9.792234420776
831 524.739221000000 -0.006391586736 -0.004261057824 -0.003195793368 -0.177170008421 -1.580165028572 9.710831642151
832 524.741221000000 -0.005326322280 -0.005326322280 -0.003195793368 -0.129286229610 -1.584953308105 9.797022819519
833 524.743219000000 -0.009587380104 -0.006391586736 -0.005326322280 -0.119709469378 -1.589741706848 9.744350433350
834 524.745220000000 -0.009587380104 -0.004261057824 -0.005326322280 -0.172381639481 -1.608895301819 9.797022819519
835 524.747221000000 -0.008522115648 -0.002130528912 -0.001065264456 -0.129286229610 -1.584953308105 9.787446022034
836 524.749220000000 -0.008522115648 -0.002130528912 -0.001065264456 -0.129286229610 -1.584953308105 9.787446022034
837 524.751219000000 -0.009587380104 -0.006391586736 -0.004261057824 -0.124497845769 -1.575376629829 9.782657623291
838 524.753218000000 -0.006391586736 -0.002130528912 -0.002130528912 -0.158016502857 -1.608895301819 9.806599617004
839 524.755221000000 -0.004261057824 -0.004261057824 -0.001065264456 -0.134074598551 -1.608895301819 9.768292427063
840 524.757219000000 -0.008522115648 -0.004261057824 -0.002130528912 -0.153228119016 -1.599318504333 9.797022819519
841 524.759216000000 -0.008522115648 -0.003195793368 -0.001065264456 -0.167593255639 -1.608895301819 9.787446022034
842 524.761219000000 -0.007456851192 -0.005326322280 -0.000000000000 -0.129286229610 -1.604106903076 9.773080825806
843 524.763223000000 -0.005326322280 -0.004261057824 -0.003195793368 -0.148439735174 -1.551434755325 9.763504028320
844 524.765219000000 -0.006391586736 -0.004261057824 -0.003195793368 -0.143651366234 -1.565799832344 9.768292427063
845 524.767221000000 -0.008522115648 -0.004261057824 -0.000000000000 -0.167593255639 -1.599318504333 9.782657623291
846 524.769220000000 -0.011717909016 -0.005326322280 0.001065264456 -0.129286229610 -1.594530105591 9.753927230835
847 524.771223000000 -0.009587380104 -0.005326322280 -0.001065264456 -0.124497845769 -1.608895301819 9.763504028320
848 524.773222000000 -0.008522115648 -0.002130528912 -0.002130528912 -0.172381639481 -1.632837176323 9.734773635864
849 524.775221000000 -0.007456851192 -0.003195793368 -0.001065264456 -0.105344332755 -1.551434755325 9.792234420776
850 524.777222000000 -0.004261057824 -0.004261057824 0.001065264456 -0.167593255639 -1.565799832344 9.768292427063
851 524.779219000000 -0.004261057824 -0.005326322280 0.001065264456 -0.186746776104 -1.608895301819 9.777869224548
852 524.781219000000 -0.007456851192 -0.003195793368 -0.003195793368 -0.086190819740 -1.565799832344 9.820964813232
853 524.783221000000 -0.007456851192 -0.004261057824 -0.002130528912 -0.148439735174 -1.613683581352 9.715620040894
854 524.785219000000 -0.007456851192 -0.005326322280 0.004261057824 -0.129286229610 -1.589741706848 9.734773635864
855 524.787221000000 -0.004261057824 -0.006391586736 -0.000000000000 -0.138862982392 -1.613683581352 9.734773635864
856 524.789218000000 -0.004261057824 -0.005326322280 -0.000000000000 -0.138862982392 -1.551434755325 9.782657623291
857 524.791218000000 -0.006391586736 -0.003195793368 -0.002130528912 -0.205900281668 -1.570588231087 9.787446022034
858 524.793216000000 -0.003195793368 -0.001065264456 -0.001065264456 -0.172381639481 -1.608895301819 9.763504028320
859 524.795218000000 -0.008522115648 -0.001065264456 -0.000000000000 -0.167593255639 -1.580165028572 9.820964813232
860 524.797217000000 -0.004261057824 -0.003195793368 -0.000000000000 -0.138862982392 -1.594530105591 9.739562034607
861 524.799217000000 -0.006391586736 -0.006391586736 -0.001065264456 -0.148439735174 -1.556223034859 9.811388015747
862 524.801218000000 -0.008522115648 -0.004261057824 -0.003195793368 -0.129286229610 -1.556223034859 9.763504028320
863 524.803218000000 -0.009587380104 -0.007456851192 -0.001065264456 -0.148439735174 -1.599318504333 9.753927230835
864 524.805216000000 -0.004261057824 -0.004261057824 -0.001065264456 -0.138862982392 -1.608895301819 9.806599617004
865 524.807218000000 -0.005326322280 -0.001065264456 -0.002130528912 -0.162804871798 -1.561011433601 9.816176414490
866 524.809216000000 -0.005326322280 -0.006391586736 0.001065264456 -0.148439735174 -1.623260378838 9.758715629578
867 524.811243000000 -0.010652644560 -0.005326322280 -0.002130528912 -0.124497845769 -1.584953308105 9.701254844666
868 524.813223000000 -0.008522115648 -0.006391586736 0.002130528912 -0.138862982392 -1.589741706848 9.758715629578
869 524.815222000000 -0.006391586736 -0.004261057824 -0.003195793368 -0.119709469378 -1.561011433601 9.773080825806
870 524.817220000000 -0.006391586736 -0.004261057824 -0.003195793368 -0.119709469378 -1.561011433601 9.773080825806
871 524.819218000000 -0.009587380104 -0.002130528912 -0.004261057824 -0.129286229610 -1.565799832344 9.768292427063
872 524.821226000000 -0.006391586736 -0.005326322280 -0.003195793368 -0.134074598551 -1.618471980095 9.787446022034
873 524.823219000000 -0.005326322280 -0.003195793368 -0.002130528912 -0.138862982392 -1.599318504333 9.792234420776
874 524.825216000000 -0.005326322280 -0.005326322280 -0.003195793368 -0.105344332755 -1.623260378838 9.739562034607
875 524.827219000000 -0.006391586736 -0.002130528912 -0.004261057824 -0.119709469378 -1.613683581352 9.773080825806
876 524.829220000000 -0.008522115648 -0.002130528912 -0.004261057824 -0.138862982392 -1.584953308105 9.758715629578
877 524.831221000000 -0.006391586736 -0.003195793368 -0.002130528912 -0.119709469378 -1.565799832344 9.801811218262
878 524.833222000000 -0.006391586736 -0.005326322280 -0.005326322280 -0.167593255639 -1.594530105591 9.797022819519
879 524.835222000000 -0.009587380104 -0.005326322280 -0.004261057824 -0.181958392262 -1.599318504333 9.797022819519
880 524.837221000000 -0.007456851192 -0.003195793368 -0.001065264456 -0.138862982392 -1.575376629829 9.787446022034
881 524.839222000000 -0.005326322280 -0.003195793368 -0.001065264456 -0.153228119016 -1.628048777580 9.739562034607
882 524.841220000000 -0.005326322280 -0.006391586736 -0.001065264456 -0.172381639481 -1.599318504333 9.701254844666
883 524.843220000000 -0.007456851192 -0.005326322280 -0.002130528912 -0.143651366234 -1.565799832344 9.749138832092
884 524.845219000000 -0.005326322280 -0.002130528912 -0.001065264456 -0.119709469378 -1.608895301819 9.801811218262
885 524.847218000000 -0.005326322280 -0.004261057824 0.001065264456 -0.172381639481 -1.575376629829 9.744350433350
886 524.849217000000 -0.006391586736 -0.004261057824 -0.001065264456 -0.143651366234 -1.604106903076 9.777869224548
887 524.851217000000 -0.009587380104 -0.006391586736 -0.001065264456 -0.148439735174 -1.604106903076 9.782657623291
888 524.853218000000 -0.009587380104 -0.004261057824 -0.002130528912 -0.110132709146 -1.589741706848 9.734773635864
889 524.855222000000 -0.007456851192 -0.002130528912 -0.003195793368 -0.158016502857 -1.594530105591 9.777869224548
890 524.857219000000 -0.007456851192 -0.002130528912 -0.003195793368 -0.181958392262 -1.589741706848 9.749138832092
891 524.859219000000 -0.004261057824 -0.001065264456 -0.003195793368 -0.172381639481 -1.570588231087 9.768292427063
892 524.861225000000 -0.006391586736 -0.006391586736 0.002130528912 -0.119709469378 -1.608895301819 9.710831642151
893 524.863220000000 -0.009587380104 -0.005326322280 -0.000000000000 -0.129286229610 -1.599318504333 9.773080825806
894 524.865220000000 -0.008522115648 -0.003195793368 -0.004261057824 -0.110132709146 -1.570588231087 9.801811218262
895 524.867219000000 -0.007456851192 -0.004261057824 -0.001065264456 -0.138862982392 -1.594530105591 9.749138832092
896 524.869220000000 -0.007456851192 -0.005326322280 -0.001065264456 -0.158016502857 -1.546646356583 9.830541610718
897 524.871220000000 -0.008522115648 -0.002130528912 -0.002130528912 -0.138862982392 -1.580165028572 9.744350433350
898 524.873227000000 -0.008522115648 -0.004261057824 -0.002130528912 -0.181958392262 -1.575376629829 9.739562034607
899 524.875221000000 -0.007456851192 -0.005326322280 -0.004261057824 -0.153228119016 -1.546646356583 9.749138832092
900 524.877218000000 -0.010652644560 -0.004261057824 -0.003195793368 -0.105344332755 -1.589741706848 9.835330009460
901 524.879216000000 -0.007456851192 -0.004261057824 -0.001065264456 -0.158016502857 -1.599318504333 9.777869224548
902 524.881217000000 -0.007456851192 -0.004261057824 -0.000000000000 -0.148439735174 -1.594530105591 9.729985237122
903 524.883219000000 -0.007456851192 -0.003195793368 -0.001065264456 -0.148439735174 -1.618471980095 9.801811218262
904 524.885218000000 -0.007456851192 -0.003195793368 -0.004261057824 -0.138862982392 -1.584953308105 9.763504028320
905 524.887220000000 -0.006391586736 -0.004261057824 -0.004261057824 -0.138862982392 -1.575376629829 9.763504028320
906 524.889220000000 -0.007456851192 -0.005326322280 -0.000000000000 -0.110132709146 -1.589741706848 9.782657623291
907 524.891220000000 -0.007456851192 -0.004261057824 -0.001065264456 -0.143651366234 -1.561011433601 9.787446022034
908 524.893219000000 -0.007456851192 -0.006391586736 -0.003195793368 -0.143651366234 -1.604106903076 9.729985237122
909 524.895221000000 -0.009587380104 -0.003195793368 -0.005326322280 -0.138862982392 -1.575376629829 9.777869224548
910 524.897221000000 -0.006391586736 -0.004261057824 -0.003195793368 -0.138862982392 -1.599318504333 9.768292427063
911 524.899219000000 -0.005326322280 -0.002130528912 -0.000000000000 -0.172381639481 -1.589741706848 9.729985237122
912 524.901219000000 -0.004261057824 -0.003195793368 -0.001065264456 -0.124497845769 -1.575376629829 9.792234420776
913 524.903220000000 -0.005326322280 -0.004261057824 -0.003195793368 -0.162804871798 -1.604106903076 9.820964813232
914 524.905220000000 -0.004261057824 -0.002130528912 -0.000000000000 -0.186746776104 -1.589741706848 9.801811218262
915 524.907216000000 -0.008522115648 -0.002130528912 -0.001065264456 -0.162804871798 -1.594530105591 9.797022819519
916 524.909218000000 -0.005326322280 -0.003195793368 -0.004261057824 -0.100555956364 -1.589741706848 9.749138832092
917 524.911218000000 -0.006391586736 -0.005326322280 -0.004261057824 -0.129286229610 -1.584953308105 9.701254844666
918 524.913217000000 -0.007456851192 -0.002130528912 -0.001065264456 -0.153228119016 -1.594530105591 9.830541610718
919 524.915219000000 -0.005326322280 -0.002130528912 -0.004261057824 -0.153228119016 -1.618471980095 9.787446022034
920 524.917219000000 -0.007456851192 -0.002130528912 -0.004261057824 -0.148439735174 -1.575376629829 9.830541610718
921 524.919222000000 -0.007456851192 -0.003195793368 -0.000000000000 -0.110132709146 -1.580165028572 9.768292427063
922 524.921222000000 -0.007456851192 -0.004261057824 0.001065264456 -0.167593255639 -1.580165028572 9.710831642151
923 524.923224000000 -0.008522115648 -0.005326322280 0.001065264456 -0.167593255639 -1.565799832344 9.773080825806
924 524.925221000000 -0.006391586736 -0.002130528912 -0.003195793368 -0.134074598551 -1.604106903076 9.797022819519
925 524.927221000000 -0.007456851192 -0.004261057824 -0.002130528912 -0.158016502857 -1.575376629829 9.806599617004
926 524.929220000000 -0.006391586736 -0.003195793368 -0.002130528912 -0.172381639481 -1.608895301819 9.806599617004
927 524.931220000000 -0.005326322280 -0.004261057824 -0.005326322280 -0.153228119016 -1.589741706848 9.782657623291
928 524.933219000000 -0.005326322280 -0.006391586736 -0.002130528912 -0.181958392262 -1.546646356583 9.710831642151
929 524.935222000000 -0.007456851192 -0.005326322280 -0.004261057824 -0.143651366234 -1.584953308105 9.763504028320
930 524.937219000000 -0.007456851192 -0.006391586736 -0.003195793368 -0.153228119016 -1.580165028572 9.734773635864
931 524.939217000000 -0.006391586736 -0.005326322280 -0.001065264456 -0.177170008421 -1.561011433601 9.849695205688
932 524.941217000000 -0.008522115648 -0.003195793368 -0.006391586736 -0.143651366234 -1.623260378838 9.753927230835
933 524.943217000000 -0.007456851192 -0.003195793368 -0.003195793368 -0.181958392262 -1.589741706848 9.797022819519
934 524.945217000000 -0.008522115648 -0.005326322280 -0.003195793368 -0.172381639481 -1.623260378838 9.753927230835
935 524.947220000000 -0.006391586736 -0.004261057824 0.001065264456 -0.181958392262 -1.618471980095 9.859272003174
936 524.949219000000 -0.005326322280 -0.005326322280 -0.004261057824 -0.191535145044 -1.594530105591 9.801811218262
937 524.951220000000 -0.010652644560 -0.003195793368 -0.004261057824 -0.129286229610 -1.580165028572 9.787446022034
938 524.953221000000 -0.006391586736 -0.006391586736 -0.002130528912 -0.134074598551 -1.565799832344 9.797022819519
939 524.955227000000 -0.007456851192 -0.004261057824 -0.001065264456 -0.148439735174 -1.594530105591 9.773080825806
940 524.957224000000 -0.005326322280 -0.003195793368 -0.002130528912 -0.172381639481 -1.608895301819 9.801811218262
941 524.959222000000 -0.009587380104 -0.001065264456 -0.005326322280 -0.158016502857 -1.599318504333 9.787446022034
942 524.961220000000 -0.008522115648 -0.005326322280 -0.002130528912 -0.143651366234 -1.599318504333 9.758715629578
943 524.963220000000 -0.007456851192 -0.007456851192 -0.003195793368 -0.148439735174 -1.584953308105 9.758715629578
944 524.965219000000 -0.007456851192 -0.007456851192 -0.003195793368 -0.162804871798 -1.594530105591 9.773080825806
945 524.967218000000 -0.008522115648 -0.003195793368 -0.004261057824 -0.138862982392 -1.604106903076 9.758715629578
946 524.969218000000 -0.006391586736 -0.006391586736 -0.003195793368 -0.148439735174 -1.570588231087 9.758715629578
947 524.971218000000 -0.007456851192 -0.005326322280 -0.003195793368 -0.143651366234 -1.584953308105 9.782657623291
948 524.973218000000 -0.006391586736 -0.004261057824 -0.002130528912 -0.167593255639 -1.608895301819 9.816176414490
949 524.975225000000 -0.005326322280 -0.003195793368 -0.004261057824 -0.181958392262 -1.584953308105 9.725196838379
950 524.977220000000 -0.003195793368 -0.003195793368 -0.003195793368 -0.167593255639 -1.599318504333 9.749138832092
951 524.979221000000 -0.004261057824 -0.004261057824 0.001065264456 -0.138862982392 -1.594530105591 9.777869224548
952 524.981218000000 -0.008522115648 -0.005326322280 -0.001065264456 -0.138862982392 -1.594530105591 9.744350433350
953 524.983218000000 -0.011717909016 -0.004261057824 -0.001065264456 -0.105344332755 -1.570588231087 9.739562034607
954 524.985221000000 -0.008522115648 -0.007456851192 -0.004261057824 -0.153228119016 -1.565799832344 9.749138832092
955 524.987220000000 -0.007456851192 -0.005326322280 -0.004261057824 -0.162804871798 -1.584953308105 9.773080825806
956 524.989218000000 -0.007456851192 -0.003195793368 -0.002130528912 -0.110132709146 -1.604106903076 9.787446022034
957 524.991219000000 -0.004261057824 -0.002130528912 -0.002130528912 -0.124497845769 -1.599318504333 9.777869224548
958 524.993217000000 -0.008522115648 -0.002130528912 -0.001065264456 -0.143651366234 -1.589741706848 9.797022819519
959 524.995220000000 -0.009587380104 -0.003195793368 -0.001065264456 -0.124497845769 -1.618471980095 9.753927230835
960 524.997218000000 -0.006391586736 -0.006391586736 -0.001065264456 -0.143651366234 -1.589741706848 9.763504028320
961 524.999217000000 -0.006391586736 -0.006391586736 -0.002130528912 -0.167593255639 -1.628048777580 9.749138832092
962 525.001216000000 -0.010652644560 -0.005326322280 -0.000000000000 -0.186746776104 -1.637625575066 9.763504028320
963 525.003223000000 -0.006391586736 -0.003195793368 -0.000000000000 -0.186746776104 -1.628048777580 9.691679000854
964 525.005218000000 -0.007456851192 -0.003195793368 -0.003195793368 -0.143651366234 -1.594530105591 9.753927230835
965 525.007217000000 -0.010652644560 -0.004261057824 -0.002130528912 -0.153228119016 -1.561011433601 9.768292427063
966 525.009217000000 -0.008522115648 -0.003195793368 -0.006391586736 -0.143651366234 -1.580165028572 9.787446022034
967 525.011216000000 -0.005326322280 -0.004261057824 -0.002130528912 -0.129286229610 -1.575376629829 9.820964813232
968 525.013216000000 -0.007456851192 -0.002130528912 -0.002130528912 -0.143651366234 -1.541857957840 9.797022819519
969 525.015223000000 -0.007456851192 -0.005326322280 -0.006391586736 -0.167593255639 -1.618471980095 9.797022819519
970 525.017221000000 -0.006391586736 -0.005326322280 -0.002130528912 -0.138862982392 -1.604106903076 9.792234420776
971 525.019241000000 -0.007456851192 -0.003195793368 -0.002130528912 -0.181958392262 -1.561011433601 9.710831642151
972 525.021221000000 -0.006391586736 -0.003195793368 -0.003195793368 -0.162804871798 -1.594530105591 9.797022819519
973 525.023219000000 -0.009587380104 -0.002130528912 -0.000000000000 -0.129286229610 -1.561011433601 9.792234420776
974 525.025224000000 -0.007456851192 -0.000000000000 -0.002130528912 -0.172381639481 -1.608895301819 9.797022819519
975 525.027219000000 -0.008522115648 -0.002130528912 -0.000000000000 -0.177170008421 -1.556223034859 9.811388015747
976 525.029219000000 -0.007456851192 -0.004261057824 -0.000000000000 -0.148439735174 -1.575376629829 9.787446022034
977 525.031220000000 -0.006391586736 -0.003195793368 -0.003195793368 -0.138862982392 -1.589741706848 9.734773635864
978 525.033221000000 -0.005326322280 -0.004261057824 -0.003195793368 -0.153228119016 -1.580165028572 9.792234420776
979 525.035221000000 -0.004261057824 -0.003195793368 -0.005326322280 -0.162804871798 -1.575376629829 9.773080825806
980 525.037220000000 -0.004261057824 -0.004261057824 -0.001065264456 -0.129286229610 -1.546646356583 9.806599617004
981 525.039216000000 -0.006391586736 -0.003195793368 -0.002130528912 -0.153228119016 -1.589741706848 9.801811218262
982 525.041217000000 -0.007456851192 -0.004261057824 -0.002130528912 -0.148439735174 -1.604106903076 9.787446022034
983 525.043217000000 -0.006391586736 -0.005326322280 -0.004261057824 -0.172381639481 -1.594530105591 9.777869224548
984 525.045217000000 -0.007456851192 -0.007456851192 0.001065264456 -0.143651366234 -1.608895301819 9.777869224548
985 525.047218000000 -0.008522115648 -0.005326322280 -0.001065264456 -0.071825683117 -1.580165028572 9.782657623291
986 525.049220000000 -0.006391586736 -0.004261057824 -0.000000000000 -0.172381639481 -1.604106903076 9.801811218262
987 525.051222000000 -0.003195793368 -0.003195793368 0.001065264456 -0.153228119016 -1.599318504333 9.825753211975
988 525.053219000000 -0.005326322280 -0.004261057824 -0.000000000000 -0.162804871798 -1.599318504333 9.777869224548
989 525.055221000000 -0.006391586736 -0.004261057824 0.001065264456 -0.124497845769 -1.570588231087 9.720408439636
990 525.057224000000 -0.004261057824 -0.005326322280 -0.000000000000 -0.148439735174 -1.575376629829 9.782657623291
991 525.059219000000 -0.005326322280 -0.004261057824 -0.004261057824 -0.143651366234 -1.584953308105 9.734773635864
992 525.061221000000 -0.005326322280 -0.004261057824 -0.005326322280 -0.191535145044 -1.541857957840 9.768292427063
993 525.063221000000 -0.009587380104 -0.003195793368 -0.003195793368 -0.177170008421 -1.604106903076 9.720408439636
994 525.065219000000 -0.009587380104 -0.001065264456 -0.000000000000 -0.110132709146 -1.632837176323 9.710831642151
995 525.067219000000 -0.009587380104 -0.003195793368 -0.000000000000 -0.148439735174 -1.599318504333 9.797022819519
996 525.069220000000 -0.008522115648 -0.005326322280 -0.002130528912 -0.153228119016 -1.584953308105 9.806599617004
997 525.071219000000 -0.006391586736 -0.003195793368 -0.002130528912 -0.162804871798 -1.594530105591 9.820964813232
998 525.073216000000 -0.005326322280 -0.004261057824 -0.004261057824 -0.162804871798 -1.589741706848 9.715620040894
999 525.075219000000 -0.007456851192 -0.002130528912 -0.003195793368 -0.162804871798 -1.556223034859 9.777869224548
1000 525.077224000000 -0.006391586736 -0.005326322280 -0.002130528912 -0.143651366234 -1.565799832344 9.782657623291
1001 525.079219000000 -0.006391586736 -0.004261057824 -0.002130528912 -0.124497845769 -1.608895301819 9.773080825806
1002 525.081220000000 -0.007456851192 -0.002130528912 -0.001065264456 -0.172381639481 -1.599318504333 9.729985237122
1003 525.083219000000 -0.009587380104 -0.000000000000 -0.002130528912 -0.138862982392 -1.613683581352 9.715620040894
1004 525.085221000000 -0.005326322280 -0.003195793368 -0.001065264456 -0.167593255639 -1.589741706848 9.749138832092
1005 525.087221000000 -0.007456851192 -0.006391586736 -0.002130528912 -0.162804871798 -1.604106903076 9.763504028320
1006 525.089221000000 -0.009587380104 -0.003195793368 -0.002130528912 -0.138862982392 -1.575376629829 9.777869224548
1007 525.091221000000 -0.008522115648 -0.002130528912 -0.000000000000 -0.158016502857 -1.561011433601 9.758715629578
1008 525.093220000000 -0.007456851192 -0.001065264456 -0.004261057824 -0.158016502857 -1.599318504333 9.739562034607
1009 525.095220000000 -0.006391586736 -0.003195793368 -0.003195793368 -0.134074598551 -1.599318504333 9.797022819519
1010 525.097222000000 -0.007456851192 -0.003195793368 -0.001065264456 -0.186746776104 -1.623260378838 9.816176414490
1011 525.099220000000 -0.005326322280 -0.004261057824 -0.001065264456 -0.148439735174 -1.599318504333 9.734773635864
1012 525.101219000000 -0.003195793368 -0.002130528912 -0.000000000000 -0.143651366234 -1.613683581352 9.792234420776
1013 525.103219000000 -0.007456851192 -0.004261057824 -0.004261057824 -0.158016502857 -1.604106903076 9.777869224548
1014 525.105226000000 -0.009587380104 -0.006391586736 -0.003195793368 -0.148439735174 -1.565799832344 9.787446022034
1015 525.107217000000 -0.007456851192 -0.004261057824 -0.001065264456 -0.177170008421 -1.594530105591 9.734773635864
1016 525.109217000000 -0.005326322280 -0.003195793368 -0.004261057824 -0.119709469378 -1.541857957840 9.782657623291
1017 525.111227000000 -0.007456851192 -0.006391586736 -0.006391586736 -0.110132709146 -1.580165028572 9.797022819519
1018 525.113220000000 -0.007456851192 -0.004261057824 -0.003195793368 -0.134074598551 -1.604106903076 9.773080825806
1019 525.115225000000 -0.008522115648 -0.003195793368 -0.000000000000 -0.158016502857 -1.551434755325 9.806599617004
1020 525.117220000000 -0.007456851192 -0.003195793368 -0.002130528912 -0.134074598551 -1.570588231087 9.729985237122
1021 525.119220000000 -0.009587380104 -0.006391586736 0.001065264456 -0.158016502857 -1.589741706848 9.792234420776
1022 525.121220000000 -0.008522115648 -0.004261057824 0.002130528912 -0.158016502857 -1.584953308105 9.787446022034
1023 525.123221000000 -0.009587380104 -0.002130528912 -0.000000000000 -0.148439735174 -1.556223034859 9.758715629578
1024 525.125221000000 -0.010652644560 -0.000000000000 -0.005326322280 -0.177170008421 -1.589741706848 9.777869224548
1025 525.127224000000 -0.008522115648 -0.003195793368 -0.003195793368 -0.129286229610 -1.594530105591 9.782657623291
1026 525.129220000000 -0.008522115648 -0.002130528912 -0.003195793368 -0.153228119016 -1.604106903076 9.763504028320
1027 525.131222000000 -0.007456851192 -0.003195793368 -0.000000000000 -0.105344332755 -1.584953308105 9.782657623291
1028 525.133221000000 -0.003195793368 -0.005326322280 -0.001065264456 -0.076614059508 -1.570588231087 9.801811218262
1029 525.135221000000 -0.006391586736 -0.008522115648 -0.003195793368 -0.090979196131 -1.613683581352 9.816176414490
1030 525.137218000000 -0.006391586736 -0.007456851192 -0.003195793368 -0.167593255639 -1.599318504333 9.830541610718
1031 525.139217000000 -0.004261057824 -0.006391586736 -0.005326322280 -0.134074598551 -1.613683581352 9.768292427063
1032 525.141217000000 -0.004261057824 -0.006391586736 -0.005326322280 -0.134074598551 -1.613683581352 9.768292427063
1033 525.143204000000 -0.009587380104 -0.003195793368 0.001065264456 -0.167593255639 -1.556223034859 9.801811218262
1034 525.145217000000 -0.005326322280 -0.004261057824 -0.000000000000 -0.158016502857 -1.565799832344 9.758715629578
