# timestamp ang_vel_x ang_vel_y ang_vel_z lin_acc_x lin_acc_y lin_acc_z
0 1540113166.263379573822 0.019174759849 0.021305288721 -0.010652644360 2.169887695313 -9.637558593750 2.327958984375
1 1540113166.264380455017 0.019174759849 0.021305288721 -0.010652644360 2.165097656250 -9.627978515625 2.337539062500
2 1540113166.265380620956 0.019174759849 0.021305288721 -0.010652644360 2.169887695313 -9.632768554687 2.347119140625
3 1540113166.266381502151 0.019174759849 0.020240024285 -0.010652644360 2.184257812500 -9.647138671875 2.356699218750
4 1540113166.267386436462 0.019174759849 0.021305288721 -0.010652644360 2.184257812500 -9.661508789063 2.356699218750
5 1540113166.268382549286 0.019174759849 0.021305288721 -0.009587379924 2.179467773438 -9.666298828125 2.356699218750
6 1540113166.269388437271 0.019174759849 0.021305288721 -0.009587379924 2.169887695313 -9.666298828125 2.366279296875
7 1540113166.270384550095 0.019174759849 0.020240024285 -0.009587379924 2.160307617188 -9.671088867187 2.380649414063
8 1540113166.271385431290 0.019174759849 0.020240024285 -0.009587379924 2.160307617188 -9.666298828125 2.380649414063
9 1540113166.272386550903 0.019174759849 0.020240024285 -0.010652644360 2.160307617188 -9.666298828125 2.380649414063
10 1540113166.273391485214 0.019174759849 0.020240024285 -0.009587379924 2.155517578125 -9.656718750000 2.380649414063
11 1540113166.274388551712 0.019174759849 0.020240024285 -0.008522114968 2.160307617188 -9.647138671875 2.390229492188
12 1540113166.275390386581 0.019174759849 0.021305288721 -0.008522114968 2.165097656250 -9.642348632813 2.395019531250
13 1540113166.276389598846 0.019174759849 0.022370551076 -0.008522114968 2.155517578125 -9.637558593750 2.380649414063
14 1540113166.277390480042 0.018109495413 0.022370551076 -0.008522114968 2.150727539063 -9.632768554687 2.361489257812
15 1540113166.278396606445 0.018109495413 0.022370551076 -0.008522114968 2.155517578125 -9.642348632813 2.347119140625
16 1540113166.279392480850 0.018109495413 0.021305288721 -0.009587379924 2.160307617188 -9.651928710938 2.332749023438
17 1540113166.280393600464 0.018109495413 0.021305288721 -0.010652644360 2.160307617188 -9.651928710938 2.337539062500
18 1540113166.281394481659 0.018109495413 0.021305288721 -0.010652644360 2.150727539063 -9.656718750000 2.342329101563
19 1540113166.282395601273 0.018109495413 0.021305288721 -0.010652644360 2.150727539063 -9.661508789063 2.351909179688
20 1540113166.283400535583 0.019174759849 0.021305288721 -0.010652644360 2.155517578125 -9.666298828125 2.366279296875
21 1540113166.284396409988 0.019174759849 0.021305288721 -0.010652644360 2.160307617188 -9.666298828125 2.380649414063
22 1540113166.285401582718 0.019174759849 0.021305288721 -0.009587379924 2.165097656250 -9.661508789063 2.395019531250
23 1540113166.286398410797 0.019174759849 0.021305288721 -0.009587379924 2.169887695313 -9.656718750000 2.395019531250
24 1540113166.287399530411 0.019174759849 0.021305288721 -0.009587379924 2.184257812500 -9.661508789063 2.390229492188
25 1540113166.288400411606 0.019174759849 0.021305288721 -0.009587379924 2.193837890625 -9.666298828125 2.385439453125
26 1540113166.289401531219 0.018109495413 0.021305288721 -0.008522114968 2.193837890625 -9.671088867187 2.390229492188
27 1540113166.290402412415 0.019174759849 0.021305288721 -0.008522114968 2.193837890625 -9.666298828125 2.380649414063
28 1540113166.291403532028 0.019174759849 0.021305288721 -0.009587379924 2.193837890625 -9.656718750000 2.366279296875
29 1540113166.292404413223 0.020240024285 0.020240024285 -0.009587379924 2.189047851563 -9.656718750000 2.366279296875
30 1540113166.293404579163 0.020240024285 0.020240024285 -0.009587379924 2.193837890625 -9.661508789063 2.366279296875
31 1540113166.294410467148 0.020240024285 0.020240024285 -0.009587379924 2.198627929687 -9.661508789063 2.366279296875
32 1540113166.295406579971 0.019174759849 0.020240024285 -0.009587379924 2.198627929687 -9.666298828125 2.366279296875
33 1540113166.296411514282 0.020240024285 0.020240024285 -0.009587379924 2.193837890625 -9.666298828125 2.356699218750
34 1540113166.297408580780 0.020240024285 0.021305288721 -0.009587379924 2.193837890625 -9.666298828125 2.351909179688
35 1540113166.298409461975 0.020240024285 0.022370551076 -0.009587379924 2.184257812500 -9.656718750000 2.351909179688
36 1540113166.299410581589 0.019174759849 0.022370551076 -0.009587379924 2.174677734375 -9.666298828125 2.351909179688
37 1540113166.300411462784 0.019174759849 0.021305288721 -0.009587379924 2.174677734375 -9.671088867187 2.342329101563
38 1540113166.301414489746 0.019174759849 0.021305288721 -0.009587379924 2.179467773438 -9.661508789063 2.327958984375
39 1540113166.302412509918 0.019174759849 0.021305288721 -0.009587379924 2.169887695313 -9.651928710938 2.318378906250
40 1540113166.303413391113 0.019174759849 0.020240024285 -0.009587379924 2.169887695313 -9.651928710938 2.313588867188
41 1540113166.304414510727 0.019174759849 0.021305288721 -0.009587379924 2.169887695313 -9.656718750000 2.318378906250
42 1540113166.305415391922 0.019174759849 0.021305288721 -0.008522114968 2.169887695313 -9.656718750000 2.337539062500
43 1540113166.306420564651 0.019174759849 0.021305288721 -0.008522114968 2.174677734375 -9.656718750000 2.351909179688
44 1540113166.307417392731 0.019174759849 0.022370551076 -0.008522114968 2.184257812500 -9.661508789063 2.356699218750
45 1540113166.308418512344 0.019174759849 0.021305288721 -0.008522114968 2.189047851563 -9.661508789063 2.361489257812
46 1540113166.309418439865 0.018109495413 0.021305288721 -0.007456850532 2.184257812500 -9.661508789063 2.351909179688
47 1540113166.310424566269 0.019174759849 0.021305288721 -0.007456850532 2.179467773438 -9.666298828125 2.356699218750
48 1540113166.311420440674 0.019174759849 0.022370551076 -0.007456850532 2.184257812500 -9.666298828125 2.366279296875
49 1540113166.312424421310 0.019174759849 0.022370551076 -0.008522114968 2.189047851563 -9.666298828125 2.375859375000
50 1540113166.313422441483 0.019174759849 0.021305288721 -0.008522114968 2.193837890625 -9.671088867187 2.385439453125
51 1540113166.314423561096 0.019174759849 0.021305288721 -0.008522114968 2.189047851563 -9.671088867187 2.404599609375
52 1540113166.315424442291 0.019174759849 0.021305288721 -0.008522114968 2.174677734375 -9.671088867187 2.409389648438
53 1540113166.316425561905 0.019174759849 0.021305288721 -0.008522114968 2.160307617188 -9.675878906250 2.409389648438
54 1540113166.317430496216 0.019174759849 0.021305288721 -0.008522114968 2.155517578125 -9.680668945313 2.414179687500
55 1540113166.318426609039 0.019174759849 0.021305288721 -0.008522114968 2.160307617188 -9.680668945313 2.404599609375
56 1540113166.319427490234 0.019174759849 0.022370551076 -0.009587379924 2.160307617188 -9.671088867187 2.399809570313
57 1540113166.320433616638 0.019174759849 0.022370551076 -0.009587379924 2.160307617188 -9.666298828125 2.399809570313
58 1540113166.321429491043 0.019174759849 0.021305288721 -0.010652644360 2.160307617188 -9.661508789063 2.390229492188
59 1540113166.322434425354 0.019174759849 0.021305288721 -0.010652644360 2.169887695313 -9.651928710938 2.380649414063
60 1540113166.323431491852 0.020240024285 0.021305288721 -0.010652644360 2.174677734375 -9.651928710938 2.366279296875
61 1540113166.324432611465 0.020240024285 0.021305288721 -0.009587379924 2.174677734375 -9.647138671875 2.351909179688
62 1540113166.325433492661 0.019174759849 0.021305288721 -0.009587379924 2.169887695313 -9.642348632813 2.351909179688
63 1540113166.326433420181 0.019174759849 0.021305288721 -0.009587379924 2.169887695313 -9.637558593750 2.356699218750
64 1540113166.327439546585 0.019174759849 0.021305288721 -0.009587379924 2.174677734375 -9.632768554687 2.351909179688
65 1540113166.328437566757 0.019174759849 0.021305288721 -0.009587379924 2.174677734375 -9.637558593750 2.347119140625
66 1540113166.329436540604 0.018109495413 0.021305288721 -0.009587379924 2.174677734375 -9.647138671875 2.342329101563
67 1540113166.330437421799 0.018109495413 0.021305288721 -0.009587379924 2.174677734375 -9.647138671875 2.356699218750
68 1540113166.331443548203 0.019174759849 0.021305288721 -0.009587379924 2.169887695313 -9.647138671875 2.361489257812
69 1540113166.332439422607 0.020240024285 0.021305288721 -0.009587379924 2.169887695313 -9.651928710938 2.351909179688
70 1540113166.333444595337 0.020240024285 0.021305288721 -0.009587379924 2.174677734375 -9.656718750000 2.356699218750
71 1540113166.334440469742 0.019174759849 0.020240024285 -0.009587379924 2.179467773438 -9.656718750000 2.356699218750
72 1540113166.335442543030 0.019174759849 0.020240024285 -0.009587379924 2.179467773438 -9.651928710938 2.347119140625
73 1540113166.336442470551 0.019174759849 0.021305288721 -0.009587379924 2.179467773438 -9.647138671875 2.347119140625
74 1540113166.337443590164 0.019174759849 0.021305288721 -0.009587379924 2.169887695313 -9.647138671875 2.347119140625
75 1540113166.338448524475 0.020240024285 0.021305288721 -0.008522114968 2.165097656250 -9.647138671875 2.351909179688
76 1540113166.339445590973 0.020240024285 0.021305288721 -0.008522114968 2.174677734375 -9.651928710938 2.361489257812
77 1540113166.340446472168 0.019174759849 0.021305288721 -0.008522114968 2.174677734375 -9.661508789063 2.366279296875
78 1540113166.341447591782 0.019174759849 0.021305288721 -0.008522114968 2.174677734375 -9.661508789063 2.371069335937
79 1540113166.342447519302 0.019174759849 0.020240024285 -0.008522114968 2.189047851563 -9.666298828125 2.375859375000
80 1540113166.343453407288 0.019174759849 0.020240024285 -0.008522114968 2.198627929687 -9.671088867187 2.375859375000
81 1540113166.344449520111 0.019174759849 0.020240024285 -0.008522114968 2.198627929687 -9.671088867187 2.371069335937
82 1540113166.345452547073 0.019174759849 0.020240024285 -0.009587379924 2.198627929687 -9.666298828125 2.366279296875
83 1540113166.346451520920 0.020240024285 0.020240024285 -0.009587379924 2.193837890625 -9.656718750000 2.366279296875
84 1540113166.347456455231 0.020240024285 0.021305288721 -0.009587379924 2.198627929687 -9.651928710938 2.371069335937
85 1540113166.348453521729 0.020240024285 0.021305288721 -0.009587379924 2.198627929687 -9.651928710938 2.375859375000
86 1540113166.349458456039 0.019174759849 0.021305288721 -0.010652644360 2.184257812500 -9.661508789063 2.385439453125
87 1540113166.350455522537 0.019174759849 0.021305288721 -0.009587379924 2.179467773438 -9.661508789063 2.385439453125
88 1540113166.351455450058 0.019174759849 0.021305288721 -0.009587379924 2.174677734375 -9.661508789063 2.380649414063
89 1540113166.352456569672 0.019174759849 0.020240024285 -0.009587379924 2.165097656250 -9.666298828125 2.385439453125
90 1540113166.353457450867 0.020240024285 0.020240024285 -0.009587379924 2.160307617188 -9.671088867187 2.390229492188
91 1540113166.354463577271 0.020240024285 0.020240024285 -0.008522114968 2.160307617188 -9.671088867187 2.385439453125
92 1540113166.355459451675 0.020240024285 0.021305288721 -0.008522114968 2.169887695313 -9.661508789063 2.375859375000
93 1540113166.356463432312 0.019174759849 0.021305288721 -0.008522114968 2.169887695313 -9.647138671875 2.371069335937
94 1540113166.357461452484 0.019174759849 0.021305288721 -0.009587379924 2.165097656250 -9.647138671875 2.361489257812
95 1540113166.358462572098 0.019174759849 0.021305288721 -0.009587379924 2.165097656250 -9.647138671875 2.351909179688
96 1540113166.359467506409 0.019174759849 0.021305288721 -0.009587379924 2.160307617188 -9.642348632813 2.347119140625
97 1540113166.360463619232 0.019174759849 0.021305288721 -0.009587379924 2.160307617188 -9.632768554687 2.351909179688
98 1540113166.361465454102 0.020240024285 0.021305288721 -0.009587379924 2.174677734375 -9.632768554687 2.347119140625
99 1540113166.362465620041 0.020240024285 0.021305288721 -0.009587379924 2.184257812500 -9.642348632813 2.332749023438
100 1540113166.363466501236 0.020240024285 0.021305288721 -0.009587379924 2.184257812500 -9.647138671875 2.327958984375
101 1540113166.364471435547 0.019174759849 0.021305288721 -0.009587379924 2.189047851563 -9.651928710938 2.332749023438
102 1540113166.365468502045 0.019174759849 0.021305288721 -0.009587379924 2.193837890625 -9.656718750000 2.342329101563
103 1540113166.366473436356 0.019174759849 0.021305288721 -0.009587379924 2.198627929687 -9.661508789063 2.351909179688
104 1540113166.367469549179 0.018109495413 0.021305288721 -0.008522114968 2.198627929687 -9.666298828125 2.366279296875
105 1540113166.368470430374 0.018109495413 0.020240024285 -0.008522114968 2.203417968750 -9.661508789063 2.371069335937
106 1540113166.369471549988 0.018109495413 0.019174759849 -0.008522114968 2.198627929687 -9.656718750000 2.361489257812
107 1540113166.370477437973 0.018109495413 0.020240024285 -0.008522114968 2.189047851563 -9.661508789063 2.347119140625
108 1540113166.371473550797 0.019174759849 0.020240024285 -0.008522114968 2.193837890625 -9.671088867187 2.337539062500
109 1540113166.372475385666 0.019174759849 0.021305288721 -0.008522114968 2.193837890625 -9.671088867187 2.327958984375
110 1540113166.373475551605 0.019174759849 0.021305288721 -0.008522114968 2.193837890625 -9.666298828125 2.313588867188
111 1540113166.374476432800 0.019174759849 0.021305288721 -0.009587379924 2.184257812500 -9.656718750000 2.299218750000
112 1540113166.375480413437 0.019174759849 0.021305288721 -0.009587379924 2.179467773438 -9.661508789063 2.304008789063
113 1540113166.376477479935 0.019174759849 0.020240024285 -0.009587379924 2.169887695313 -9.656718750000 2.313588867188
114 1540113166.377478599548 0.019174759849 0.021305288721 -0.009587379924 2.165097656250 -9.651928710938 2.323168945313
115 1540113166.378479480743 0.019174759849 0.021305288721 -0.009587379924 2.165097656250 -9.656718750000 2.337539062500
116 1540113166.379479408264 0.019174759849 0.021305288721 -0.009587379924 2.155517578125 -9.661508789063 2.347119140625
117 1540113166.380485534668 0.019174759849 0.020240024285 -0.009587379924 2.155517578125 -9.661508789063 2.347119140625
118 1540113166.381481409073 0.019174759849 0.021305288721 -0.009587379924 2.165097656250 -9.666298828125 2.351909179688
119 1540113166.382485389709 0.019174759849 0.021305288721 -0.009587379924 2.169887695313 -9.671088867187 2.366279296875
120 1540113166.383483409882 0.019174759849 0.021305288721 -0.009587379924 2.174677734375 -9.666298828125 2.375859375000
121 1540113166.384484529495 0.019174759849 0.021305288721 -0.008522114968 2.169887695313 -9.656718750000 2.371069335937
122 1540113166.385485410690 0.019174759849 0.021305288721 -0.008522114968 2.160307617188 -9.647138671875 2.371069335937
123 1540113166.386490583420 0.019174759849 0.022370551076 -0.008522114968 2.155517578125 -9.627978515625 2.371069335937
124 1540113166.387486457825 0.018109495413 0.022370551076 -0.009587379924 2.174677734375 -9.613608398438 2.371069335937
125 1540113166.388488531113 0.018109495413 0.022370551076 -0.009587379924 2.193837890625 -9.613608398438 2.380649414063
126 1540113166.389488458633 0.018109495413 0.021305288721 -0.008522114968 2.198627929687 -9.618398437500 2.395019531250
127 1540113166.390489578247 0.019174759849 0.022370551076 -0.008522114968 2.198627929687 -9.627978515625 2.395019531250
128 1540113166.391494512558 0.019174759849 0.022370551076 -0.008522114968 2.189047851563 -9.637558593750 2.390229492188
129 1540113166.392491579056 0.019174759849 0.021305288721 -0.008522114968 2.184257812500 -9.632768554687 2.385439453125
130 1540113166.393496513367 0.019174759849 0.021305288721 -0.008522114968 2.189047851563 -9.623188476563 2.385439453125
131 1540113166.394492387772 0.019174759849 0.021305288721 -0.009587379924 2.184257812500 -9.623188476563 2.399809570313
132 1540113166.395493507385 0.019174759849 0.021305288721 -0.009587379924 2.179467773438 -9.637558593750 2.404599609375
133 1540113166.396499395370 0.019174759849 0.021305288721 -0.008522114968 2.179467773438 -9.647138671875 2.395019531250
134 1540113166.397495508194 0.019174759849 0.021305288721 -0.009587379924 2.165097656250 -9.647138671875 2.395019531250
135 1540113166.398498535156 0.020240024285 0.021305288721 -0.008522114968 2.160307617188 -9.647138671875 2.390229492188
136 1540113166.399497509003 0.020240024285 0.021305288721 -0.008522114968 2.165097656250 -9.642348632813 2.380649414063
137 1540113166.400498390198 0.019174759849 0.021305288721 -0.008522114968 2.174677734375 -9.642348632813 2.371069335937
138 1540113166.401499509811 0.019174759849 0.021305288721 -0.009587379924 2.174677734375 -9.647138671875 2.361489257812
139 1540113166.402499437332 0.019174759849 0.021305288721 -0.009587379924 2.169887695313 -9.661508789063 2.351909179688
140 1540113166.403505563736 0.019174759849 0.021305288721 -0.009587379924 2.169887695313 -9.666298828125 2.351909179688
141 1540113166.404501438141 0.018109495413 0.021305288721 -0.009587379924 2.169887695313 -9.675878906250 2.347119140625
142 1540113166.405502557755 0.019174759849 0.021305288721 -0.010652644360 2.174677734375 -9.685458984375 2.356699218750
143 1540113166.406503438950 0.019174759849 0.021305288721 -0.010652644360 2.179467773438 -9.685458984375 2.361489257812
144 1540113166.407508611679 0.019174759849 0.020240024285 -0.010652644360 2.179467773438 -9.675878906250 2.356699218750
145 1540113166.408505439758 0.019174759849 0.020240024285 -0.010652644360 2.184257812500 -9.675878906250 2.347119140625
146 1540113166.409509420395 0.019174759849 0.020240024285 -0.010652644360 2.193837890625 -9.671088867187 2.332749023438
147 1540113166.410507440567 0.019174759849 0.020240024285 -0.010652644360 2.198627929687 -9.666298828125 2.318378906250
148 1540113166.411507606506 0.019174759849 0.020240024285 -0.009587379924 2.193837890625 -9.661508789063 2.323168945313
149 1540113166.412508487701 0.019174759849 0.020240024285 -0.009587379924 2.189047851563 -9.656718750000 2.347119140625
150 1540113166.413509607315 0.020240024285 0.021305288721 -0.008522114968 2.184257812500 -9.647138671875 2.356699218750
151 1540113166.414510488510 0.020240024285 0.021305288721 -0.008522114968 2.169887695313 -9.637558593750 2.356699218750
152 1540113166.415511608124 0.020240024285 0.021305288721 -0.008522114968 2.165097656250 -9.632768554687 2.351909179688
153 1540113166.416512489319 0.020240024285 0.022370551076 -0.009587379924 2.165097656250 -9.642348632813 2.351909179688
154 1540113166.417517423630 0.020240024285 0.022370551076 -0.009587379924 2.150727539063 -9.661508789063 2.371069335937
155 1540113166.418514490128 0.020240024285 0.022370551076 -0.009587379924 2.141147460938 -9.671088867187 2.395019531250
156 1540113166.419519424438 0.020240024285 0.021305288721 -0.009587379924 2.145937500000 -9.666298828125 2.399809570313
157 1540113166.420515537262 0.020240024285 0.021305288721 -0.009587379924 2.150727539063 -9.671088867187 2.390229492188
158 1540113166.421516418457 0.020240024285 0.021305288721 -0.009587379924 2.165097656250 -9.671088867187 2.380649414063
159 1540113166.422517538071 0.020240024285 0.020240024285 -0.009587379924 2.169887695313 -9.666298828125 2.380649414063
160 1540113166.423518419266 0.020240024285 0.020240024285 -0.009587379924 2.169887695313 -9.661508789063 2.375859375000
161 1540113166.424519538879 0.020240024285 0.021305288721 -0.009587379924 2.174677734375 -9.666298828125 2.385439453125
162 1540113166.425521612167 0.020240024285 0.021305288721 -0.009587379924 2.179467773438 -9.661508789063 2.385439453125
163 1540113166.426521539688 0.019174759849 0.021305288721 -0.009587379924 2.169887695313 -9.656718750000 2.380649414063
164 1540113166.427522420883 0.019174759849 0.021305288721 -0.009587379924 2.160307617188 -9.661508789063 2.375859375000
165 1540113166.428526401520 0.019174759849 0.022370551076 -0.009587379924 2.165097656250 -9.666298828125 2.371069335937
166 1540113166.429523468018 0.019174759849 0.022370551076 -0.009587379924 2.174677734375 -9.666298828125 2.371069335937
167 1540113166.430529594421 0.019174759849 0.022370551076 -0.009587379924 2.179467773438 -9.656718750000 2.371069335937
168 1540113166.431525468826 0.019174759849 0.022370551076 -0.009587379924 2.179467773438 -9.661508789063 2.366279296875
169 1540113166.432526588440 0.019174759849 0.022370551076 -0.009587379924 2.174677734375 -9.666298828125 2.361489257812
170 1540113166.433527469635 0.019174759849 0.022370551076 -0.009587379924 2.179467773438 -9.666298828125 2.366279296875
171 1540113166.434528589249 0.019174759849 0.021305288721 -0.009587379924 2.179467773438 -9.671088867187 2.361489257812
172 1540113166.435532569885 0.019174759849 0.021305288721 -0.009587379924 2.169887695313 -9.671088867187 2.361489257812
173 1540113166.436529397964 0.019174759849 0.021305288721 -0.008522114968 2.160307617188 -9.666298828125 2.361489257812
174 1540113166.437530517578 0.019174759849 0.021305288721 -0.009587379924 2.169887695313 -9.656718750000 2.351909179688
175 1540113166.438531398773 0.019174759849 0.021305288721 -0.009587379924 2.174677734375 -9.656718750000 2.337539062500
176 1540113166.439532518387 0.019174759849 0.021305288721 -0.009587379924 2.165097656250 -9.661508789063 2.332749023438
177 1540113166.440537452698 0.019174759849 0.021305288721 -0.009587379924 2.165097656250 -9.661508789063 2.337539062500
178 1540113166.441534519196 0.019174759849 0.021305288721 -0.009587379924 2.169887695313 -9.666298828125 2.351909179688
179 1540113166.442537546158 0.020240024285 0.021305288721 -0.008522114968 2.169887695313 -9.671088867187 2.356699218750
180 1540113166.443536520004 0.020240024285 0.021305288721 -0.008522114968 2.160307617188 -9.666298828125 2.361489257812
181 1540113166.444541454315 0.019174759849 0.021305288721 -0.008522114968 2.150727539063 -9.661508789063 2.361489257812
182 1540113166.445537567139 0.019174759849 0.022370551076 -0.009587379924 2.150727539063 -9.656718750000 2.356699218750
183 1540113166.446542501450 0.019174759849 0.022370551076 -0.009587379924 2.155517578125 -9.661508789063 2.351909179688
184 1540113166.447539567947 0.019174759849 0.022370551076 -0.009587379924 2.165097656250 -9.656718750000 2.351909179688
185 1540113166.448540449142 0.019174759849 0.022370551076 -0.008522114968 2.169887695313 -9.656718750000 2.371069335937
186 1540113166.449541568756 0.018109495413 0.021305288721 -0.008522114968 2.165097656250 -9.666298828125 2.390229492188
187 1540113166.450542449951 0.018109495413 0.021305288721 -0.008522114968 2.165097656250 -9.666298828125 2.390229492188
188 1540113166.451547384262 0.018109495413 0.021305288721 -0.008522114968 2.169887695313 -9.661508789063 2.385439453125
189 1540113166.452543497086 0.018109495413 0.021305288721 -0.008522114968 2.169887695313 -9.651928710938 2.380649414063
190 1540113166.453544616699 0.018109495413 0.021305288721 -0.008522114968 2.174677734375 -9.647138671875 2.375859375000
191 1540113166.454545497894 0.019174759849 0.021305288721 -0.008522114968 2.179467773438 -9.642348632813 2.366279296875
192 1540113166.455546617508 0.019174759849 0.022370551076 -0.008522114968 2.174677734375 -9.647138671875 2.356699218750
193 1540113166.456552505493 0.018109495413 0.022370551076 -0.009587379924 2.179467773438 -9.651928710938 2.351909179688
194 1540113166.457548618317 0.019174759849 0.022370551076 -0.009587379924 2.184257812500 -9.661508789063 2.351909179688
195 1540113166.458550453186 0.019174759849 0.022370551076 -0.010652644360 2.179467773438 -9.671088867187 2.366279296875
196 1540113166.459550619125 0.019174759849 0.021305288721 -0.010652644360 2.179467773438 -9.671088867187 2.371069335937
197 1540113166.460551500320 0.019174759849 0.021305288721 -0.009587379924 2.184257812500 -9.661508789063 2.371069335937
198 1540113166.461556434631 0.019174759849 0.021305288721 -0.009587379924 2.179467773438 -9.661508789063 2.366279296875
199 1540113166.462555408478 0.019174759849 0.021305288721 -0.009587379924 2.174677734375 -9.666298828125 2.361489257812
200 1540113166.463553428650 0.019174759849 0.021305288721 -0.009587379924 2.174677734375 -9.666298828125 2.356699218750
201 1540113166.464554548264 0.019174759849 0.021305288721 -0.009587379924 2.179467773438 -9.671088867187 2.356699218750
202 1540113166.465555429459 0.019174759849 0.021305288721 -0.009587379924 2.174677734375 -9.671088867187 2.351909179688
203 1540113166.466556549072 0.019174759849 0.020240024285 -0.009587379924 2.160307617188 -9.666298828125 2.342329101563
204 1540113166.467561483383 0.019174759849 0.020240024285 -0.009587379924 2.155517578125 -9.656718750000 2.332749023438
205 1540113166.468558549881 0.019174759849 0.020240024285 -0.008522114968 2.155517578125 -9.647138671875 2.327958984375
206 1540113166.469560384750 0.019174759849 0.021305288721 -0.008522114968 2.165097656250 -9.651928710938 2.332749023438
207 1540113166.470559597015 0.019174759849 0.021305288721 -0.007456850532 2.169887695313 -9.666298828125 2.342329101563
208 1540113166.471560478210 0.019174759849 0.021305288721 -0.007456850532 2.165097656250 -9.671088867187 2.351909179688
209 1540113166.472566604614 0.019174759849 0.020240024285 -0.007456850532 2.155517578125 -9.671088867187 2.371069335937
210 1540113166.473562479019 0.019174759849 0.020240024285 -0.008522114968 2.160307617188 -9.666298828125 2.375859375000
211 1540113166.474563598633 0.019174759849 0.020240024285 -0.008522114968 2.155517578125 -9.675878906250 2.361489257812
212 1540113166.475564479828 0.019174759849 0.020240024285 -0.008522114968 2.145937500000 -9.675878906250 2.361489257812
213 1540113166.476565599442 0.019174759849 0.020240024285 -0.008522114968 2.131567382812 -9.671088867187 2.366279296875
214 1540113166.477570533752 0.020240024285 0.021305288721 -0.008522114968 2.126777343750 -9.661508789063 2.366279296875
215 1540113166.478566408157 0.020240024285 0.020240024285 -0.008522114968 2.131567382812 -9.666298828125 2.356699218750
216 1540113166.479571580887 0.020240024285 0.020240024285 -0.008522114968 2.141147460938 -9.666298828125 2.351909179688
217 1540113166.480568408966 0.020240024285 0.020240024285 -0.008522114968 2.150727539063 -9.666298828125 2.361489257812
218 1540113166.481569528580 0.019174759849 0.020240024285 -0.008522114968 2.160307617188 -9.661508789063 2.371069335937
219 1540113166.482570409775 0.019174759849 0.021305288721 -0.008522114968 2.174677734375 -9.661508789063 2.366279296875
220 1540113166.483575582504 0.019174759849 0.021305288721 -0.008522114968 2.179467773438 -9.661508789063 2.366279296875
221 1540113166.484572410583 0.019174759849 0.021305288721 -0.008522114968 2.179467773438 -9.651928710938 2.375859375000
222 1540113166.485573530197 0.019174759849 0.021305288721 -0.008522114968 2.179467773438 -9.656718750000 2.380649414063
223 1540113166.486573457718 0.019174759849 0.021305288721 -0.008522114968 2.179467773438 -9.666298828125 2.375859375000
224 1540113166.487574577332 0.019174759849 0.021305288721 -0.008522114968 2.174677734375 -9.666298828125 2.371069335937
225 1540113166.488579511642 0.019174759849 0.020240024285 -0.008522114968 2.174677734375 -9.666298828125 2.356699218750
226 1540113166.489576578140 0.019174759849 0.020240024285 -0.008522114968 2.174677734375 -9.671088867187 2.351909179688
227 1540113166.490580558777 0.018109495413 0.021305288721 -0.008522114968 2.169887695313 -9.675878906250 2.356699218750
228 1540113166.491578578949 0.018109495413 0.021305288721 -0.008522114968 2.174677734375 -9.671088867187 2.366279296875
229 1540113166.492579460144 0.018109495413 0.021305288721 -0.008522114968 2.179467773438 -9.666298828125 2.366279296875
230 1540113166.493583440781 0.018109495413 0.022370551076 -0.008522114968 2.174677734375 -9.666298828125 2.366279296875
231 1540113166.494580507278 0.018109495413 0.022370551076 -0.008522114968 2.165097656250 -9.656718750000 2.361489257812
232 1540113166.495583534241 0.019174759849 0.022370551076 -0.008522114968 2.165097656250 -9.656718750000 2.366279296875
233 1540113166.496581554413 0.019174759849 0.023435815512 -0.008522114968 2.169887695313 -9.661508789063 2.380649414063
234 1540113166.497582435608 0.019174759849 0.022370551076 -0.008522114968 2.174677734375 -9.661508789063 2.371069335937
235 1540113166.498583555222 0.019174759849 0.022370551076 -0.008522114968 2.179467773438 -9.661508789063 2.356699218750
236 1540113166.499584436417 0.019174759849 0.022370551076 -0.008522114968 2.174677734375 -9.666298828125 2.351909179688
237 1540113166.500590562820 0.020240024285 0.022370551076 -0.008522114968 2.174677734375 -9.680668945313 2.347119140625
238 1540113166.501586437225 0.020240024285 0.022370551076 -0.008522114968 2.184257812500 -9.685458984375 2.342329101563
239 1540113166.502587556839 0.019174759849 0.021305288721 -0.008522114968 2.193837890625 -9.685458984375 2.342329101563
240 1540113166.503588438034 0.019174759849 0.021305288721 -0.008522114968 2.198627929687 -9.675878906250 2.347119140625
241 1540113166.504593610764 0.019174759849 0.021305288721 -0.008522114968 2.203417968750 -9.671088867187 2.356699218750
242 1540113166.505589485168 0.019174759849 0.021305288721 -0.008522114968 2.193837890625 -9.671088867187 2.356699218750
243 1540113166.506593465805 0.018109495413 0.022370551076 -0.008522114968 2.184257812500 -9.671088867187 2.356699218750
244 1540113166.507591485977 0.019174759849 0.022370551076 -0.008522114968 2.169887695313 -9.661508789063 2.356699218750
245 1540113166.508592605591 0.019174759849 0.021305288721 -0.009587379924 2.169887695313 -9.656718750000 2.361489257812
246 1540113166.509593486786 0.019174759849 0.021305288721 -0.009587379924 2.174677734375 -9.656718750000 2.361489257812
247 1540113166.510594606400 0.019174759849 0.021305288721 -0.009587379924 2.169887695313 -9.647138671875 2.361489257812
248 1540113166.511596441269 0.019174759849 0.021305288721 -0.009587379924 2.169887695313 -9.637558593750 2.366279296875
249 1540113166.512596607208 0.019174759849 0.021305288721 -0.009587379924 2.169887695313 -9.632768554687 2.361489257812
250 1540113166.513596534729 0.019174759849 0.021305288721 -0.009587379924 2.179467773438 -9.642348632813 2.356699218750
251 1540113166.514602422714 0.020240024285 0.021305288721 -0.009587379924 2.189047851563 -9.656718750000 2.356699218750
252 1540113166.515598535538 0.020240024285 0.020240024285 -0.009587379924 2.184257812500 -9.656718750000 2.366279296875
253 1540113166.516604423523 0.019174759849 0.020240024285 -0.009587379924 2.184257812500 -9.656718750000 2.375859375000
254 1540113166.517600536346 0.019174759849 0.020240024285 -0.009587379924 2.174677734375 -9.656718750000 2.375859375000
255 1540113166.518601417542 0.019174759849 0.021305288721 -0.009587379924 2.169887695313 -9.656718750000 2.375859375000
256 1540113166.519602537155 0.019174759849 0.020240024285 -0.009587379924 2.169887695313 -9.651928710938 2.371069335937
257 1540113166.520607471466 0.019174759849 0.020240024285 -0.009587379924 2.174677734375 -9.647138671875 2.371069335937
258 1540113166.521603584290 0.018109495413 0.021305288721 -0.009587379924 2.169887695313 -9.642348632813 2.385439453125
259 1540113166.522606611252 0.018109495413 0.022370551076 -0.008522114968 2.160307617188 -9.647138671875 2.385439453125
260 1540113166.523605585098 0.019174759849 0.022370551076 -0.008522114968 2.165097656250 -9.647138671875 2.375859375000
261 1540113166.524606466293 0.020240024285 0.022370551076 -0.008522114968 2.165097656250 -9.651928710938 2.380649414063
262 1540113166.525611400604 0.020240024285 0.022370551076 -0.009587379924 2.160307617188 -9.656718750000 2.380649414063
263 1540113166.526608467102 0.020240024285 0.022370551076 -0.009587379924 2.165097656250 -9.666298828125 2.375859375000
264 1540113166.527613401413 0.019174759849 0.022370551076 -0.009587379924 2.169887695313 -9.666298828125 2.371069335937
265 1540113166.528610467911 0.019174759849 0.022370551076 -0.008522114968 2.174677734375 -9.666298828125 2.371069335937
266 1540113166.529610395432 0.019174759849 0.022370551076 -0.008522114968 2.179467773438 -9.666298828125 2.366279296875
267 1540113166.530616521835 0.019174759849 0.021305288721 -0.008522114968 2.184257812500 -9.661508789063 2.366279296875
268 1540113166.531612396240 0.019174759849 0.021305288721 -0.008522114968 2.184257812500 -9.656718750000 2.366279296875
269 1540113166.532617568970 0.019174759849 0.021305288721 -0.008522114968 2.184257812500 -9.661508789063 2.356699218750
270 1540113166.533614397049 0.019174759849 0.021305288721 -0.008522114968 2.184257812500 -9.656718750000 2.351909179688
271 1540113166.534615516663 0.019174759849 0.021305288721 -0.009587379924 2.174677734375 -9.651928710938 2.366279296875
272 1540113166.535616397858 0.018109495413 0.021305288721 -0.009587379924 2.165097656250 -9.661508789063 2.371069335937
273 1540113166.536617517471 0.018109495413 0.021305288721 -0.009587379924 2.160307617188 -9.656718750000 2.375859375000
274 1540113166.537622451782 0.018109495413 0.022370551076 -0.009587379924 2.169887695313 -9.647138671875 2.371069335937
275 1540113166.538618564606 0.018109495413 0.023435815512 -0.008522114968 2.169887695313 -9.647138671875 2.366279296875
276 1540113166.539619445801 0.018109495413 0.023435815512 -0.008522114968 2.174677734375 -9.651928710938 2.361489257812
277 1540113166.540620565414 0.018109495413 0.023435815512 -0.008522114968 2.174677734375 -9.656718750000 2.351909179688
278 1540113166.541626453400 0.018109495413 0.022370551076 -0.008522114968 2.179467773438 -9.651928710938 2.337539062500
279 1540113166.542622566223 0.018109495413 0.022370551076 -0.009587379924 2.184257812500 -9.647138671875 2.323168945313
280 1540113166.543627500534 0.019174759849 0.022370551076 -0.009587379924 2.189047851563 -9.647138671875 2.323168945313
281 1540113166.544624567032 0.019174759849 0.022370551076 -0.009587379924 2.189047851563 -9.651928710938 2.332749023438
282 1540113166.545625448227 0.019174759849 0.022370551076 -0.009587379924 2.193837890625 -9.661508789063 2.337539062500
283 1540113166.546625614166 0.018109495413 0.022370551076 -0.009587379924 2.193837890625 -9.661508789063 2.342329101563
284 1540113166.547626495361 0.019174759849 0.022370551076 -0.009587379924 2.189047851563 -9.656718750000 2.356699218750
285 1540113166.548627614975 0.019174759849 0.022370551076 -0.009587379924 2.179467773438 -9.651928710938 2.361489257812
286 1540113166.549628496170 0.018109495413 0.021305288721 -0.009587379924 2.165097656250 -9.647138671875 2.351909179688
287 1540113166.550629615784 0.018109495413 0.021305288721 -0.009587379924 2.160307617188 -9.642348632813 2.347119140625
288 1540113166.551630496979 0.018109495413 0.021305288721 -0.009587379924 2.160307617188 -9.637558593750 2.342329101563
289 1540113166.552631616592 0.018109495413 0.021305288721 -0.009587379924 2.165097656250 -9.642348632813 2.337539062500
290 1540113166.553636550903 0.018109495413 0.021305288721 -0.008522114968 2.165097656250 -9.651928710938 2.342329101563
291 1540113166.554632425308 0.018109495413 0.021305288721 -0.008522114968 2.160307617188 -9.656718750000 2.351909179688
292 1540113166.555634498596 0.018109495413 0.021305288721 -0.009587379924 2.160307617188 -9.656718750000 2.356699218750
293 1540113166.556634426117 0.018109495413 0.021305288721 -0.009587379924 2.155517578125 -9.661508789063 2.356699218750
294 1540113166.557635545731 0.018109495413 0.021305288721 -0.009587379924 2.145937500000 -9.666298828125 2.347119140625
295 1540113166.558636426926 0.018109495413 0.020240024285 -0.009587379924 2.145937500000 -9.666298828125 2.342329101563
296 1540113166.559640407562 0.018109495413 0.021305288721 -0.009587379924 2.160307617188 -9.666298828125 2.342329101563
297 1540113166.560638427734 0.019174759849 0.021305288721 -0.010652644360 2.169887695313 -9.661508789063 2.347119140625
298 1540113166.561639547348 0.019174759849 0.021305288721 -0.010652644360 2.169887695313 -9.651928710938 2.361489257812
299 1540113166.562640428543 0.019174759849 0.021305288721 -0.009587379924 2.174677734375 -9.637558593750 2.361489257812
300 1540113166.563640594482 0.019174759849 0.021305288721 -0.009587379924 2.179467773438 -9.637558593750 2.356699218750
301 1540113166.564646482468 0.019174759849 0.021305288721 -0.009587379924 2.184257812500 -9.647138671875 2.371069335937
302 1540113166.565642595291 0.020240024285 0.021305288721 -0.008522114968 2.179467773438 -9.656718750000 2.385439453125
303 1540113166.566645383835 0.020240024285 0.020240024285 -0.008522114968 2.174677734375 -9.656718750000 2.390229492188
304 1540113166.567644596100 0.020240024285 0.020240024285 -0.008522114968 2.169887695313 -9.661508789063 2.390229492188
305 1540113166.568645477295 0.020240024285 0.020240024285 -0.008522114968 2.165097656250 -9.671088867187 2.385439453125
306 1540113166.569650411606 0.020240024285 0.020240024285 -0.009587379924 2.169887695313 -9.671088867187 2.375859375000
307 1540113166.570647478104 0.019174759849 0.020240024285 -0.010652644360 2.179467773438 -9.671088867187 2.361489257812
308 1540113166.571647405624 0.019174759849 0.020240024285 -0.010652644360 2.189047851563 -9.675878906250 2.347119140625
309 1540113166.572648525238 0.019174759849 0.020240024285 -0.011717907756 2.189047851563 -9.671088867187 2.342329101563
310 1540113166.573649406433 0.019174759849 0.021305288721 -0.010652644360 2.184257812500 -9.671088867187 2.337539062500
311 1540113166.574655532837 0.019174759849 0.021305288721 -0.010652644360 2.184257812500 -9.675878906250 2.347119140625
312 1540113166.575651407242 0.019174759849 0.021305288721 -0.010652644360 2.189047851563 -9.671088867187 2.356699218750
313 1540113166.576655387878 0.019174759849 0.020240024285 -0.010652644360 2.189047851563 -9.666298828125 2.356699218750
314 1540113166.577653408051 0.019174759849 0.020240024285 -0.010652644360 2.169887695313 -9.666298828125 2.351909179688
315 1540113166.578656435013 0.019174759849 0.020240024285 -0.010652644360 2.155517578125 -9.671088867187 2.347119140625
316 1540113166.579654455185 0.020240024285 0.020240024285 -0.009587379924 2.136357421875 -9.675878906250 2.361489257812
317 1540113166.580660581589 0.020240024285 0.021305288721 -0.009587379924 2.136357421875 -9.680668945313 2.371069335937
318 1540113166.581656455994 0.020240024285 0.021305288721 -0.008522114968 2.136357421875 -9.685458984375 2.361489257812
319 1540113166.582658529282 0.020240024285 0.021305288721 -0.008522114968 2.136357421875 -9.680668945313 2.366279296875
320 1540113166.583658456802 0.020240024285 0.021305288721 -0.008522114968 2.136357421875 -9.675878906250 2.371069335937
321 1540113166.584659576416 0.020240024285 0.021305288721 -0.008522114968 2.141147460938 -9.671088867187 2.380649414063
322 1540113166.585664510727 0.020240024285 0.021305288721 -0.008522114968 2.136357421875 -9.661508789063 2.385439453125
323 1540113166.586661577225 0.019174759849 0.021305288721 -0.008522114968 2.131567382812 -9.651928710938 2.385439453125
324 1540113166.587662458420 0.019174759849 0.020240024285 -0.008522114968 2.136357421875 -9.647138671875 2.395019531250
325 1540113166.588662385941 0.019174759849 0.021305288721 -0.008522114968 2.131567382812 -9.647138671875 2.409389648438
326 1540113166.589663505554 0.019174759849 0.021305288721 -0.008522114968 2.131567382812 -9.656718750000 2.409389648438
327 1540113166.590669393539 0.019174759849 0.021305288721 -0.009587379924 2.131567382812 -9.666298828125 2.385439453125
328 1540113166.591665506363 0.019174759849 0.021305288721 -0.009587379924 2.136357421875 -9.671088867187 2.371069335937
329 1540113166.592668533325 0.019174759849 0.021305288721 -0.009587379924 2.136357421875 -9.671088867187 2.366279296875
330 1540113166.593667507172 0.019174759849 0.022370551076 -0.010652644360 2.145937500000 -9.656718750000 2.375859375000
331 1540113166.594668388367 0.019174759849 0.022370551076 -0.010652644360 2.145937500000 -9.647138671875 2.375859375000
332 1540113166.595669507980 0.019174759849 0.022370551076 -0.010652644360 2.150727539063 -9.632768554687 2.356699218750
333 1540113166.596674442291 0.019174759849 0.022370551076 -0.010652644360 2.150727539063 -9.627978515625 2.356699218750
334 1540113166.597670555115 0.020240024285 0.022370551076 -0.010652644360 2.155517578125 -9.632768554687 2.356699218750
335 1540113166.598671436310 0.020240024285 0.022370551076 -0.009587379924 2.155517578125 -9.632768554687 2.351909179688
336 1540113166.599672555923 0.020240024285 0.022370551076 -0.009587379924 2.160307617188 -9.637558593750 2.366279296875
337 1540113166.600673437119 0.020240024285 0.021305288721 -0.009587379924 2.179467773438 -9.651928710938 2.380649414063
338 1540113166.601678609848 0.019174759849 0.021305288721 -0.008522114968 2.189047851563 -9.666298828125 2.380649414063
339 1540113166.602675437927 0.019174759849 0.021305288721 -0.008522114968 2.193837890625 -9.671088867187 2.375859375000
340 1540113166.603679418564 0.019174759849 0.021305288721 -0.008522114968 2.203417968750 -9.675878906250 2.380649414063
341 1540113166.604676485062 0.020240024285 0.021305288721 -0.008522114968 2.208208007812 -9.675878906250 2.375859375000
342 1540113166.605677604675 0.020240024285 0.021305288721 -0.008522114968 2.203417968750 -9.671088867187 2.371069335937
343 1540113166.606682538986 0.020240024285 0.021305288721 -0.009587379924 2.198627929687 -9.671088867187 2.375859375000
344 1540113166.607679605484 0.020240024285 0.021305288721 -0.009587379924 2.193837890625 -9.675878906250 2.380649414063
345 1540113166.608680486679 0.020240024285 0.021305288721 -0.010652644360 2.184257812500 -9.675878906250 2.385439453125
346 1540113166.609680414200 0.019174759849 0.021305288721 -0.009587379924 2.165097656250 -9.675878906250 2.390229492188
347 1540113166.610681533813 0.019174759849 0.021305288721 -0.008522114968 2.160307617188 -9.671088867187 2.385439453125
348 1540113166.611686468124 0.019174759849 0.021305288721 -0.009587379924 2.145937500000 -9.680668945313 2.375859375000
349 1540113166.612683534622 0.018109495413 0.021305288721 -0.010652644360 2.136357421875 -9.675878906250 2.371069335937
350 1540113166.613688468933 0.018109495413 0.021305288721 -0.010652644360 2.141147460938 -9.671088867187 2.366279296875
351 1540113166.614684581757 0.018109495413 0.021305288721 -0.009587379924 2.141147460938 -9.675878906250 2.371069335937
352 1540113166.615685462952 0.019174759849 0.021305288721 -0.009587379924 2.150727539063 -9.685458984375 2.380649414063
353 1540113166.616686582565 0.019174759849 0.021305288721 -0.009587379924 2.165097656250 -9.695039062500 2.380649414063
354 1540113166.617692470551 0.019174759849 0.021305288721 -0.009587379924 2.174677734375 -9.695039062500 2.385439453125
355 1540113166.618688583374 0.018109495413 0.021305288721 -0.009587379924 2.174677734375 -9.680668945313 2.375859375000
356 1540113166.619691610336 0.019174759849 0.021305288721 -0.009587379924 2.174677734375 -9.675878906250 2.371069335937
357 1540113166.620690584183 0.018109495413 0.022370551076 -0.009587379924 2.169887695313 -9.675878906250 2.375859375000
358 1540113166.621691465378 0.018109495413 0.022370551076 -0.008522114968 2.160307617188 -9.666298828125 2.371069335937
359 1540113166.622695446014 0.018109495413 0.022370551076 -0.008522114968 2.165097656250 -9.656718750000 2.366279296875
360 1540113166.623692512512 0.019174759849 0.022370551076 -0.008522114968 2.165097656250 -9.647138671875 2.371069335937
361 1540113166.624698400497 0.019174759849 0.022370551076 -0.008522114968 2.160307617188 -9.647138671875 2.380649414063
362 1540113166.625694513321 0.019174759849 0.022370551076 -0.009587379924 2.169887695313 -9.656718750000 2.395019531250
363 1540113166.626695394516 0.019174759849 0.022370551076 -0.009587379924 2.174677734375 -9.666298828125 2.395019531250
364 1540113166.627700567245 0.019174759849 0.021305288721 -0.010652644360 2.165097656250 -9.671088867187 2.395019531250
365 1540113166.628697395325 0.018109495413 0.022370551076 -0.010652644360 2.155517578125 -9.675878906250 2.395019531250
366 1540113166.629701614380 0.018109495413 0.022370551076 -0.009587379924 2.145937500000 -9.675878906250 2.395019531250
367 1540113166.630699396133 0.019174759849 0.022370551076 -0.009587379924 2.150727539063 -9.671088867187 2.395019531250
368 1540113166.631699562073 0.019174759849 0.022370551076 -0.008522114968 2.160307617188 -9.666298828125 2.395019531250
369 1540113166.632700443268 0.019174759849 0.022370551076 -0.009587379924 2.155517578125 -9.666298828125 2.395019531250
370 1540113166.633701562881 0.019174759849 0.022370551076 -0.009587379924 2.145937500000 -9.666298828125 2.380649414063
371 1540113166.634707450867 0.019174759849 0.022370551076 -0.009587379924 2.141147460938 -9.671088867187 2.371069335937
372 1540113166.635704517365 0.018109495413 0.021305288721 -0.009587379924 2.150727539063 -9.671088867187 2.371069335937
373 1540113166.636704444885 0.018109495413 0.021305288721 -0.009587379924 2.160307617188 -9.671088867187 2.375859375000
374 1540113166.637705564499 0.018109495413 0.021305288721 -0.009587379924 2.174677734375 -9.671088867187 2.380649414063
375 1540113166.638710498810 0.018109495413 0.021305288721 -0.009587379924 2.193837890625 -9.666298828125 2.371069335937
376 1540113166.639707565308 0.018109495413 0.022370551076 -0.009587379924 2.208208007812 -9.661508789063 2.361489257812
377 1540113166.640712499619 0.019174759849 0.021305288721 -0.009587379924 2.203417968750 -9.656718750000 2.356699218750
378 1540113166.641708612442 0.019174759849 0.021305288721 -0.009587379924 2.189047851563 -9.647138671875 2.356699218750
379 1540113166.642709493637 0.019174759849 0.020240024285 -0.008522114968 2.174677734375 -9.647138671875 2.361489257812
380 1540113166.643710613251 0.019174759849 0.020240024285 -0.008522114968 2.169887695313 -9.656718750000 2.361489257812
381 1540113166.644711494446 0.019174759849 0.020240024285 -0.008522114968 2.165097656250 -9.656718750000 2.371069335937
382 1540113166.645714521408 0.019174759849 0.020240024285 -0.008522114968 2.160307617188 -9.671088867187 2.375859375000
383 1540113166.646713495255 0.019174759849 0.020240024285 -0.008522114968 2.155517578125 -9.675878906250 2.380649414063
384 1540113166.647714614868 0.020240024285 0.020240024285 -0.008522114968 2.165097656250 -9.680668945313 2.371069335937
385 1540113166.648714542389 0.020240024285 0.020240024285 -0.008522114968 2.165097656250 -9.685458984375 2.356699218750
386 1540113166.649715423584 0.020240024285 0.020240024285 -0.008522114968 2.155517578125 -9.690249023438 2.356699218750
387 1540113166.650721549988 0.020240024285 0.021305288721 -0.008522114968 2.145937500000 -9.690249023438 2.361489257812
388 1540113166.651717424393 0.020240024285 0.021305288721 -0.009587379924 2.141147460938 -9.685458984375 2.361489257812
389 1540113166.652719497681 0.019174759849 0.021305288721 -0.009587379924 2.141147460938 -9.690249023438 2.366279296875
390 1540113166.653719425201 0.019174759849 0.021305288721 -0.009587379924 2.145937500000 -9.680668945313 2.361489257812
391 1540113166.654724597931 0.019174759849 0.022370551076 -0.009587379924 2.150727539063 -9.671088867187 2.347119140625
392 1540113166.655721426010 0.020240024285 0.022370551076 -0.009587379924 2.160307617188 -9.666298828125 2.347119140625
393 1540113166.656725406647 0.020240024285 0.021305288721 -0.009587379924 2.174677734375 -9.656718750000 2.361489257812
394 1540113166.657722473145 0.019174759849 0.021305288721 -0.010652644360 2.179467773438 -9.656718750000 2.356699218750
395 1540113166.658723592758 0.019174759849 0.021305288721 -0.010652644360 2.179467773438 -9.651928710938 2.351909179688
396 1540113166.659724473953 0.019174759849 0.021305288721 -0.010652644360 2.174677734375 -9.651928710938 2.361489257812
397 1540113166.660725593567 0.019174759849 0.021305288721 -0.010652644360 2.174677734375 -9.651928710938 2.371069335937
398 1540113166.661730527878 0.019174759849 0.021305288721 -0.010652644360 2.179467773438 -9.647138671875 2.375859375000
399 1540113166.662727594376 0.019174759849 0.021305288721 -0.010652644360 2.184257812500 -9.647138671875 2.380649414063
400 1540113166.663728475571 0.019174759849 0.022370551076 -0.010652644360 2.184257812500 -9.647138671875 2.375859375000
401 1540113166.664733409882 0.019174759849 0.022370551076 -0.010652644360 2.189047851563 -9.656718750000 2.375859375000
402 1540113166.665729522705 0.019174759849 0.022370551076 -0.010652644360 2.193837890625 -9.671088867187 2.380649414063
403 1540113166.666735410690 0.019174759849 0.021305288721 -0.010652644360 2.189047851563 -9.675878906250 2.385439453125
404 1540113166.667731523514 0.019174759849 0.022370551076 -0.010652644360 2.193837890625 -9.671088867187 2.380649414063
405 1540113166.668732404709 0.019174759849 0.022370551076 -0.010652644360 2.193837890625 -9.671088867187 2.385439453125
406 1540113166.669733524323 0.018109495413 0.022370551076 -0.009587379924 2.193837890625 -9.671088867187 2.380649414063
407 1540113166.670734405518 0.018109495413 0.021305288721 -0.009587379924 2.193837890625 -9.661508789063 2.371069335937
408 1540113166.671739578247 0.018109495413 0.021305288721 -0.009587379924 2.184257812500 -9.651928710938 2.366279296875
409 1540113166.672736406326 0.019174759849 0.021305288721 -0.009587379924 2.184257812500 -9.651928710938 2.351909179688
410 1540113166.673736572266 0.019174759849 0.021305288721 -0.009587379924 2.184257812500 -9.666298828125 2.332749023438
411 1540113166.674737453461 0.019174759849 0.021305288721 -0.009587379924 2.174677734375 -9.671088867187 2.327958984375
412 1540113166.675740480423 0.019174759849 0.021305288721 -0.009587379924 2.174677734375 -9.675878906250 2.342329101563
413 1540113166.676739454269 0.019174759849 0.021305288721 -0.009587379924 2.174677734375 -9.675878906250 2.356699218750
414 1540113166.677745580673 0.018109495413 0.021305288721 -0.009587379924 2.169887695313 -9.671088867187 2.371069335937
415 1540113166.678741455078 0.018109495413 0.021305288721 -0.010652644360 2.169887695313 -9.666298828125 2.380649414063
416 1540113166.679742574692 0.018109495413 0.021305288721 -0.010652644360 2.169887695313 -9.666298828125 2.385439453125
417 1540113166.680743455887 0.018109495413 0.021305288721 -0.010652644360 2.160307617188 -9.671088867187 2.390229492188
418 1540113166.681743621826 0.018109495413 0.021305288721 -0.010652644360 2.150727539063 -9.675878906250 2.395019531250
419 1540113166.682749509811 0.019174759849 0.021305288721 -0.010652644360 2.150727539063 -9.680668945313 2.385439453125
420 1540113166.683745384216 0.018109495413 0.021305288721 -0.009587379924 2.150727539063 -9.680668945313 2.361489257812
421 1540113166.684746503830 0.018109495413 0.021305288721 -0.009587379924 2.155517578125 -9.675878906250 2.351909179688
422 1540113166.685747385025 0.018109495413 0.021305288721 -0.009587379924 2.165097656250 -9.671088867187 2.356699218750
423 1540113166.686748504639 0.018109495413 0.021305288721 -0.009587379924 2.179467773438 -9.671088867187 2.366279296875
424 1540113166.687753438950 0.018109495413 0.021305288721 -0.009587379924 2.184257812500 -9.666298828125 2.371069335937
425 1540113166.688750505447 0.018109495413 0.022370551076 -0.008522114968 2.184257812500 -9.656718750000 2.385439453125
426 1540113166.689753532410 0.018109495413 0.022370551076 -0.008522114968 2.184257812500 -9.651928710938 2.395019531250
427 1540113166.690751552582 0.018109495413 0.022370551076 -0.009587379924 2.169887695313 -9.642348632813 2.385439453125
428 1540113166.691752433777 0.019174759849 0.022370551076 -0.009587379924 2.165097656250 -9.642348632813 2.375859375000
429 1540113166.692753553391 0.019174759849 0.021305288721 -0.008522114968 2.179467773438 -9.642348632813 2.366279296875
430 1540113166.693758487701 0.020240024285 0.021305288721 -0.008522114968 2.174677734375 -9.642348632813 2.356699218750
431 1540113166.694755554199 0.020240024285 0.020240024285 -0.007456850532 2.165097656250 -9.651928710938 2.351909179688
432 1540113166.695756435394 0.019174759849 0.020240024285 -0.007456850532 2.160307617188 -9.661508789063 2.356699218750
433 1540113166.696757555008 0.018109495413 0.020240024285 -0.008522114968 2.155517578125 -9.666298828125 2.366279296875
434 1540113166.697758436203 0.018109495413 0.020240024285 -0.008522114968 2.145937500000 -9.675878906250 2.371069335937
435 1540113166.698763608932 0.018109495413 0.021305288721 -0.008522114968 2.136357421875 -9.671088867187 2.366279296875
436 1540113166.699759483337 0.019174759849 0.021305288721 -0.008522114968 2.141147460938 -9.661508789063 2.375859375000
437 1540113166.700763463974 0.019174759849 0.021305288721 -0.009587379924 2.145937500000 -9.656718750000 2.385439453125
438 1540113166.701761484146 0.018109495413 0.021305288721 -0.010652644360 2.145937500000 -9.656718750000 2.380649414063
439 1540113166.702762603760 0.018109495413 0.021305288721 -0.010652644360 2.155517578125 -9.661508789063 2.371069335937
440 1540113166.703767538071 0.018109495413 0.021305288721 -0.010652644360 2.160307617188 -9.661508789063 2.371069335937
441 1540113166.704764604568 0.019174759849 0.022370551076 -0.010652644360 2.165097656250 -9.661508789063 2.371069335937
442 1540113166.705766439438 0.019174759849 0.022370551076 -0.009587379924 2.179467773438 -9.661508789063 2.366279296875
443 1540113166.706765413284 0.020240024285 0.022370551076 -0.009587379924 2.179467773438 -9.666298828125 2.356699218750
444 1540113166.707766532898 0.020240024285 0.022370551076 -0.009587379924 2.179467773438 -9.661508789063 2.351909179688
445 1540113166.708772420883 0.020240024285 0.022370551076 -0.008522114968 2.174677734375 -9.661508789063 2.351909179688
446 1540113166.709768533707 0.019174759849 0.021305288721 -0.009587379924 2.174677734375 -9.661508789063 2.351909179688
447 1540113166.710774421692 0.019174759849 0.021305288721 -0.008522114968 2.174677734375 -9.656718750000 2.351909179688
448 1540113166.711770534515 0.019174759849 0.021305288721 -0.009587379924 2.179467773438 -9.651928710938 2.351909179688
449 1540113166.712771415710 0.019174759849 0.021305288721 -0.009587379924 2.179467773438 -9.651928710938 2.347119140625
450 1540113166.713772535324 0.019174759849 0.022370551076 -0.009587379924 2.189047851563 -9.651928710938 2.347119140625
451 1540113166.714777469635 0.019174759849 0.022370551076 -0.008522114968 2.198627929687 -9.647138671875 2.351909179688
452 1540113166.715773582458 0.020240024285 0.022370551076 -0.008522114968 2.198627929687 -9.647138671875 2.356699218750
453 1540113166.716776609421 0.020240024285 0.022370551076 -0.008522114968 2.193837890625 -9.656718750000 2.361489257812
454 1540113166.717775583267 0.020240024285 0.022370551076 -0.008522114968 2.184257812500 -9.661508789063 2.366279296875
455 1540113166.718776464462 0.020240024285 0.022370551076 -0.008522114968 2.165097656250 -9.675878906250 2.366279296875
456 1540113166.719779491425 0.019174759849 0.021305288721 -0.008522114968 2.150727539063 -9.680668945313 2.361489257812
457 1540113166.720778465271 0.019174759849 0.020240024285 -0.008522114968 2.141147460938 -9.680668945313 2.347119140625
458 1540113166.721779584885 0.019174759849 0.021305288721 -0.008522114968 2.141147460938 -9.671088867187 2.337539062500
459 1540113166.722779512405 0.019174759849 0.021305288721 -0.008522114968 2.145937500000 -9.671088867187 2.332749023438
460 1540113166.723780393600 0.019174759849 0.021305288721 -0.008522114968 2.155517578125 -9.666298828125 2.342329101563
461 1540113166.724785566330 0.019174759849 0.022370551076 -0.009587379924 2.169887695313 -9.656718750000 2.342329101563
462 1540113166.725781440735 0.019174759849 0.022370551076 -0.009587379924 2.179467773438 -9.651928710938 2.337539062500
463 1540113166.726786613464 0.019174759849 0.022370551076 -0.009587379924 2.174677734375 -9.656718750000 2.351909179688
464 1540113166.727783441544 0.019174759849 0.022370551076 -0.008522114968 2.169887695313 -9.671088867187 2.361489257812
465 1540113166.728784561157 0.020240024285 0.022370551076 -0.008522114968 2.165097656250 -9.675878906250 2.375859375000
466 1540113166.729785442352 0.020240024285 0.022370551076 -0.008522114968 2.160307617188 -9.675878906250 2.385439453125
467 1540113166.730786561966 0.019174759849 0.022370551076 -0.008522114968 2.165097656250 -9.671088867187 2.380649414063
468 1540113166.731787443161 0.019174759849 0.022370551076 -0.008522114968 2.169887695313 -9.671088867187 2.385439453125
469 1540113166.732788562775 0.020240024285 0.022370551076 -0.008522114968 2.169887695313 -9.671088867187 2.390229492188
470 1540113166.733788490295 0.020240024285 0.022370551076 -0.007456850532 2.174677734375 -9.666298828125 2.380649414063
471 1540113166.734789609909 0.020240024285 0.022370551076 -0.007456850532 2.174677734375 -9.666298828125 2.361489257812
472 1540113166.735795497894 0.020240024285 0.021305288721 -0.008522114968 2.174677734375 -9.666298828125 2.356699218750
473 1540113166.736791610718 0.020240024285 0.022370551076 -0.008522114968 2.169887695313 -9.656718750000 2.366279296875
474 1540113166.737796545029 0.020240024285 0.022370551076 -0.008522114968 2.169887695313 -9.656718750000 2.361489257812
475 1540113166.738793611526 0.020240024285 0.022370551076 -0.008522114968 2.179467773438 -9.656718750000 2.361489257812
476 1540113166.739794492722 0.020240024285 0.023435815512 -0.009587379924 2.184257812500 -9.656718750000 2.366279296875
477 1540113166.740799427032 0.020240024285 0.022370551076 -0.009587379924 2.189047851563 -9.661508789063 2.356699218750
478 1540113166.741795539856 0.020240024285 0.022370551076 -0.009587379924 2.189047851563 -9.666298828125 2.351909179688
479 1540113166.742799520493 0.019174759849 0.021305288721 -0.009587379924 2.189047851563 -9.666298828125 2.347119140625
480 1540113166.743797540665 0.019174759849 0.021305288721 -0.008522114968 2.189047851563 -9.666298828125 2.337539062500
481 1540113166.744798421860 0.019174759849 0.021305288721 -0.008522114968 2.198627929687 -9.661508789063 2.323168945313
482 1540113166.745799541473 0.019174759849 0.021305288721 -0.008522114968 2.198627929687 -9.651928710938 2.318378906250
483 1540113166.746800422668 0.019174759849 0.021305288721 -0.008522114968 2.184257812500 -9.647138671875 2.323168945313
484 1540113166.747805595398 0.019174759849 0.021305288721 -0.009587379924 2.174677734375 -9.656718750000 2.337539062500
485 1540113166.748802423477 0.019174759849 0.021305288721 -0.009587379924 2.179467773438 -9.666298828125 2.337539062500
486 1540113166.749804496765 0.020240024285 0.021305288721 -0.008522114968 2.189047851563 -9.661508789063 2.337539062500
487 1540113166.750803470612 0.019174759849 0.020240024285 -0.008522114968 2.189047851563 -9.666298828125 2.342329101563
488 1540113166.751809597015 0.019174759849 0.020240024285 -0.008522114968 2.184257812500 -9.671088867187 2.351909179688
489 1540113166.752805471420 0.019174759849 0.020240024285 -0.008522114968 2.169887695313 -9.661508789063 2.361489257812
490 1540113166.753809452057 0.019174759849 0.021305288721 -0.008522114968 2.165097656250 -9.656718750000 2.371069335937
491 1540113166.754807472229 0.019174759849 0.021305288721 -0.008522114968 2.160307617188 -9.661508789063 2.375859375000
492 1540113166.755808591843 0.018109495413 0.021305288721 -0.008522114968 2.155517578125 -9.656718750000 2.375859375000
493 1540113166.756809473038 0.018109495413 0.021305288721 -0.009587379924 2.150727539063 -9.651928710938 2.366279296875
494 1540113166.757810592651 0.019174759849 0.020240024285 -0.009587379924 2.150727539063 -9.647138671875 2.361489257812
495 1540113166.758815526962 0.019174759849 0.020240024285 -0.009587379924 2.160307617188 -9.637558593750 2.366279296875
496 1540113166.759811401367 0.019174759849 0.021305288721 -0.009587379924 2.165097656250 -9.637558593750 2.361489257812
497 1540113166.760812520981 0.018109495413 0.021305288721 -0.009587379924 2.160307617188 -9.647138671875 2.351909179688
498 1540113166.761818408966 0.018109495413 0.021305288721 -0.009587379924 2.155517578125 -9.651928710938 2.342329101563
499 1540113166.762814521790 0.019174759849 0.021305288721 -0.010652644360 2.155517578125 -9.647138671875 2.337539062500
500 1540113166.763819456100 0.019174759849 0.021305288721 -0.010652644360 2.155517578125 -9.656718750000 2.347119140625
501 1540113166.764816522598 0.018109495413 0.021305288721 -0.010652644360 2.150727539063 -9.671088867187 2.356699218750
502 1540113166.765817403793 0.018109495413 0.021305288721 -0.009587379924 2.150727539063 -9.680668945313 2.366279296875
503 1540113166.766817569733 0.018109495413 0.021305288721 -0.009587379924 2.160307617188 -9.680668945313 2.366279296875
504 1540113166.767818450928 0.018109495413 0.021305288721 -0.009587379924 2.155517578125 -9.671088867187 2.366279296875
505 1540113166.768824577332 0.018109495413 0.021305288721 -0.009587379924 2.160307617188 -9.661508789063 2.375859375000
506 1540113166.769822597504 0.019174759849 0.021305288721 -0.010652644360 2.165097656250 -9.656718750000 2.375859375000
507 1540113166.770821571350 0.019174759849 0.021305288721 -0.010652644360 2.169887695313 -9.661508789063 2.366279296875
508 1540113166.771822452545 0.019174759849 0.021305288721 -0.009587379924 2.179467773438 -9.656718750000 2.361489257812
509 1540113166.772824525833 0.019174759849 0.021305288721 -0.009587379924 2.189047851563 -9.651928710938 2.366279296875
510 1540113166.773824453354 0.019174759849 0.021305288721 -0.008522114968 2.198627929687 -9.656718750000 2.375859375000
511 1540113166.774829387665 0.019174759849 0.021305288721 -0.008522114968 2.203417968750 -9.666298828125 2.375859375000
512 1540113166.775825500488 0.019174759849 0.021305288721 -0.008522114968 2.198627929687 -9.671088867187 2.385439453125
513 1540113166.776827573776 0.018109495413 0.021305288721 -0.008522114968 2.193837890625 -9.666298828125 2.385439453125
514 1540113166.777827501297 0.019174759849 0.021305288721 -0.007456850532 2.189047851563 -9.656718750000 2.375859375000
515 1540113166.778828620911 0.019174759849 0.021305288721 -0.007456850532 2.189047851563 -9.647138671875 2.361489257812
516 1540113166.779833555222 0.019174759849 0.021305288721 -0.007456850532 2.184257812500 -9.642348632813 2.356699218750
517 1540113166.780830621719 0.019174759849 0.021305288721 -0.008522114968 2.179467773438 -9.642348632813 2.347119140625
518 1540113166.781831502914 0.018109495413 0.020240024285 -0.009587379924 2.174677734375 -9.642348632813 2.332749023438
519 1540113166.782832384109 0.018109495413 0.021305288721 -0.009587379924 2.174677734375 -9.647138671875 2.332749023438
520 1540113166.783832550049 0.019174759849 0.021305288721 -0.009587379924 2.165097656250 -9.642348632813 2.332749023438
521 1540113166.784838438034 0.019174759849 0.021305288721 -0.009587379924 2.150727539063 -9.642348632813 2.327958984375
522 1540113166.785834550858 0.020240024285 0.021305288721 -0.008522114968 2.150727539063 -9.647138671875 2.332749023438
523 1540113166.786837577820 0.020240024285 0.021305288721 -0.009587379924 2.160307617188 -9.651928710938 2.347119140625
524 1540113166.787836551666 0.020240024285 0.021305288721 -0.009587379924 2.165097656250 -9.656718750000 2.351909179688
525 1540113166.788841485977 0.019174759849 0.021305288721 -0.009587379924 2.165097656250 -9.651928710938 2.351909179688
526 1540113166.789838552475 0.019174759849 0.021305288721 -0.009587379924 2.165097656250 -9.647138671875 2.356699218750
527 1540113166.790843486786 0.018109495413 0.021305288721 -0.008522114968 2.165097656250 -9.656718750000 2.366279296875
528 1540113166.791840553284 0.018109495413 0.021305288721 -0.008522114968 2.169887695313 -9.661508789063 2.356699218750
529 1540113166.792840480804 0.018109495413 0.022370551076 -0.008522114968 2.169887695313 -9.666298828125 2.351909179688
530 1540113166.793841600418 0.019174759849 0.022370551076 -0.009587379924 2.169887695313 -9.656718750000 2.366279296875
531 1540113166.794842481613 0.019174759849 0.022370551076 -0.008522114968 2.169887695313 -9.651928710938 2.375859375000
532 1540113166.795847415924 0.019174759849 0.022370551076 -0.008522114968 2.165097656250 -9.651928710938 2.375859375000
533 1540113166.796844482422 0.019174759849 0.021305288721 -0.008522114968 2.160307617188 -9.651928710938 2.366279296875
534 1540113166.797845602036 0.020240024285 0.021305288721 -0.008522114968 2.169887695313 -9.651928710938 2.356699218750
535 1540113166.798846483231 0.020240024285 0.021305288721 -0.009587379924 2.174677734375 -9.656718750000 2.347119140625
536 1540113166.799847602844 0.020240024285 0.021305288721 -0.009587379924 2.179467773438 -9.671088867187 2.337539062500
537 1540113166.800852537155 0.021305288721 0.021305288721 -0.009587379924 2.184257812500 -9.675878906250 2.337539062500
538 1540113166.801848411560 0.020240024285 0.021305288721 -0.009587379924 2.189047851563 -9.671088867187 2.337539062500
539 1540113166.802850484848 0.020240024285 0.021305288721 -0.008522114968 2.189047851563 -9.671088867187 2.337539062500
540 1540113166.803850412369 0.019174759849 0.021305288721 -0.009587379924 2.193837890625 -9.671088867187 2.342329101563
541 1540113166.804851531982 0.019174759849 0.021305288721 -0.009587379924 2.198627929687 -9.661508789063 2.347119140625
542 1540113166.805856466293 0.018109495413 0.021305288721 -0.010652644360 2.203417968750 -9.661508789063 2.347119140625
543 1540113166.806853532791 0.018109495413 0.020240024285 -0.010652644360 2.198627929687 -9.666298828125 2.347119140625
544 1540113166.807854413986 0.019174759849 0.020240024285 -0.010652644360 2.198627929687 -9.666298828125 2.347119140625
545 1540113166.808854579926 0.019174759849 0.020240024285 -0.010652644360 2.189047851563 -9.675878906250 2.366279296875
546 1540113166.809855461121 0.019174759849 0.020240024285 -0.010652644360 2.174677734375 -9.675878906250 2.380649414063
547 1540113166.810856580734 0.019174759849 0.020240024285 -0.010652644360 2.165097656250 -9.675878906250 2.375859375000
548 1540113166.811862468719 0.019174759849 0.020240024285 -0.009587379924 2.165097656250 -9.671088867187 2.371069335937
549 1540113166.812858581543 0.020240024285 0.020240024285 -0.009587379924 2.169887695313 -9.671088867187 2.371069335937
550 1540113166.813861608505 0.020240024285 0.020240024285 -0.008522114968 2.179467773438 -9.675878906250 2.366279296875
551 1540113166.814860582352 0.020240024285 0.020240024285 -0.008522114968 2.189047851563 -9.666298828125 2.361489257812
552 1540113166.815861463547 0.020240024285 0.020240024285 -0.008522114968 2.189047851563 -9.666298828125 2.366279296875
553 1540113166.816864490509 0.020240024285 0.021305288721 -0.008522114968 2.193837890625 -9.675878906250 2.371069335937
554 1540113166.817862510681 0.020240024285 0.020240024285 -0.008522114968 2.203417968750 -9.671088867187 2.366279296875
555 1540113166.818863391876 0.020240024285 0.021305288721 -0.008522114968 2.208208007812 -9.666298828125 2.366279296875
556 1540113166.819864511490 0.020240024285 0.021305288721 -0.009587379924 2.208208007812 -9.666298828125 2.366279296875
557 1540113166.820865392685 0.020240024285 0.021305288721 -0.009587379924 2.198627929687 -9.671088867187 2.351909179688
558 1540113166.821870565414 0.019174759849 0.021305288721 -0.009587379924 2.184257812500 -9.661508789063 2.351909179688
559 1540113166.822867393494 0.019174759849 0.021305288721 -0.009587379924 2.174677734375 -9.661508789063 2.361489257812
560 1540113166.823871612549 0.018109495413 0.021305288721 -0.009587379924 2.169887695313 -9.656718750000 2.375859375000
561 1540113166.824869394302 0.018109495413 0.021305288721 -0.009587379924 2.169887695313 -9.651928710938 2.380649414063
562 1540113166.825869560242 0.019174759849 0.021305288721 -0.010652644360 2.169887695313 -9.647138671875 2.375859375000
563 1540113166.826870441437 0.019174759849 0.021305288721 -0.010652644360 2.179467773438 -9.642348632813 2.366279296875
564 1540113166.827876567841 0.019174759849 0.021305288721 -0.010652644360 2.189047851563 -9.637558593750 2.371069335937
565 1540113166.828872442245 0.019174759849 0.022370551076 -0.010652644360 2.189047851563 -9.637558593750 2.380649414063
566 1540113166.829874515533 0.019174759849 0.022370551076 -0.010652644360 2.193837890625 -9.637558593750 2.385439453125
567 1540113166.830874443054 0.019174759849 0.021305288721 -0.010652644360 2.198627929687 -9.627978515625 2.385439453125
568 1540113166.831875562668 0.019174759849 0.021305288721 -0.011717907756 2.203417968750 -9.623188476563 2.385439453125
569 1540113166.832879543304 0.019174759849 0.021305288721 -0.011717907756 2.203417968750 -9.618398437500 2.380649414063
570 1540113166.833876609802 0.019174759849 0.021305288721 -0.010652644360 2.203417968750 -9.627978515625 2.380649414063
571 1540113166.834881544113 0.019174759849 0.021305288721 -0.010652644360 2.198627929687 -9.637558593750 2.380649414063
572 1540113166.835878610611 0.020240024285 0.021305288721 -0.010652644360 2.198627929687 -9.642348632813 2.366279296875
573 1540113166.836879491806 0.020240024285 0.021305288721 -0.009587379924 2.193837890625 -9.642348632813 2.351909179688
574 1540113166.837884426117 0.019174759849 0.021305288721 -0.009587379924 2.193837890625 -9.642348632813 2.347119140625
575 1540113166.838880538940 0.019174759849 0.021305288721 -0.009587379924 2.193837890625 -9.642348632813 2.342329101563
576 1540113166.839883565903 0.019174759849 0.021305288721 -0.009587379924 2.198627929687 -9.651928710938 2.342329101563
577 1540113166.840882539749 0.018109495413 0.021305288721 -0.010652644360 2.198627929687 -9.661508789063 2.351909179688
578 1540113166.841883420944 0.018109495413 0.021305288721 -0.010652644360 2.189047851563 -9.661508789063 2.356699218750
579 1540113166.842884540558 0.018109495413 0.021305288721 -0.009587379924 2.184257812500 -9.666298828125 2.356699218750
580 1540113166.843884468079 0.018109495413 0.021305288721 -0.009587379924 2.189047851563 -9.656718750000 2.366279296875
581 1540113166.844890594482 0.018109495413 0.021305288721 -0.009587379924 2.189047851563 -9.647138671875 2.380649414063
582 1540113166.845886468887 0.019174759849 0.021305288721 -0.009587379924 2.189047851563 -9.642348632813 2.390229492188
583 1540113166.846887588501 0.019174759849 0.021305288721 -0.010652644360 2.189047851563 -9.642348632813 2.390229492188
584 1540113166.847888469696 0.019174759849 0.020240024285 -0.009587379924 2.184257812500 -9.637558593750 2.385439453125
585 1540113166.848893404007 0.019174759849 0.020240024285 -0.009587379924 2.179467773438 -9.637558593750 2.375859375000
586 1540113166.849890470505 0.019174759849 0.020240024285 -0.008522114968 2.184257812500 -9.647138671875 2.375859375000
587 1540113166.850894451141 0.020240024285 0.021305288721 -0.008522114968 2.189047851563 -9.661508789063 2.371069335937
588 1540113166.851891517639 0.019174759849 0.022370551076 -0.009587379924 2.193837890625 -9.671088867187 2.366279296875
589 1540113166.852892398834 0.019174759849 0.022370551076 -0.009587379924 2.198627929687 -9.680668945313 2.371069335937
590 1540113166.853893518448 0.019174759849 0.021305288721 -0.009587379924 2.184257812500 -9.680668945313 2.371069335937
591 1540113166.854894399643 0.019174759849 0.021305288721 -0.009587379924 2.169887695313 -9.675878906250 2.361489257812
592 1540113166.855896472931 0.019174759849 0.021305288721 -0.009587379924 2.169887695313 -9.671088867187 2.361489257812
593 1540113166.856896400452 0.019174759849 0.021305288721 -0.009587379924 2.169887695313 -9.675878906250 2.366279296875
594 1540113166.857897520065 0.019174759849 0.021305288721 -0.008522114968 2.174677734375 -9.680668945313 2.371069335937
595 1540113166.858902454376 0.019174759849 0.021305288721 -0.008522114968 2.169887695313 -9.675878906250 2.375859375000
596 1540113166.859899520874 0.018109495413 0.021305288721 -0.009587379924 2.165097656250 -9.666298828125 2.380649414063
597 1540113166.860904455185 0.019174759849 0.021305288721 -0.008522114968 2.160307617188 -9.651928710938 2.375859375000
598 1540113166.861900568008 0.019174759849 0.021305288721 -0.008522114968 2.174677734375 -9.637558593750 2.366279296875
599 1540113166.862901449203 0.019174759849 0.022370551076 -0.009587379924 2.179467773438 -9.642348632813 2.356699218750
600 1540113166.863902568817 0.020240024285 0.022370551076 -0.009587379924 2.169887695313 -9.647138671875 2.347119140625
601 1540113166.864903450012 0.020240024285 0.022370551076 -0.009587379924 2.165097656250 -9.647138671875 2.337539062500
602 1540113166.865904569626 0.019174759849 0.021305288721 -0.010652644360 2.155517578125 -9.642348632813 2.342329101563
603 1540113166.866907596588 0.019174759849 0.021305288721 -0.010652644360 2.150727539063 -9.637558593750 2.347119140625
604 1540113166.867906570435 0.018109495413 0.021305288721 -0.009587379924 2.155517578125 -9.632768554687 2.356699218750
605 1540113166.868906497955 0.019174759849 0.021305288721 -0.009587379924 2.160307617188 -9.627978515625 2.356699218750
606 1540113166.869909524918 0.019174759849 0.020240024285 -0.009587379924 2.155517578125 -9.627978515625 2.342329101563
607 1540113166.870908498764 0.019174759849 0.020240024285 -0.009587379924 2.150727539063 -9.632768554687 2.337539062500
608 1540113166.871914386749 0.019174759849 0.020240024285 -0.009587379924 2.155517578125 -9.637558593750 2.342329101563
609 1540113166.872910499573 0.019174759849 0.021305288721 -0.008522114968 2.155517578125 -9.637558593750 2.347119140625
610 1540113166.873911619186 0.019174759849 0.021305288721 -0.008522114968 2.165097656250 -9.637558593750 2.342329101563
611 1540113166.874916553497 0.019174759849 0.021305288721 -0.007456850532 2.165097656250 -9.642348632813 2.332749023438
612 1540113166.875913619995 0.019174759849 0.021305288721 -0.007456850532 2.165097656250 -9.647138671875 2.327958984375
613 1540113166.876917600632 0.019174759849 0.021305288721 -0.008522114968 2.160307617188 -9.656718750000 2.332749023438
614 1540113166.877914428711 0.019174759849 0.021305288721 -0.008522114968 2.155517578125 -9.661508789063 2.347119140625
615 1540113166.878915548325 0.019174759849 0.021305288721 -0.007456850532 2.155517578125 -9.661508789063 2.366279296875
616 1540113166.879916429520 0.019174759849 0.021305288721 -0.007456850532 2.150727539063 -9.666298828125 2.380649414063
617 1540113166.880917549133 0.019174759849 0.022370551076 -0.007456850532 2.145937500000 -9.675878906250 2.390229492188
618 1540113166.881922483444 0.019174759849 0.021305288721 -0.007456850532 2.155517578125 -9.671088867187 2.399809570313
619 1540113166.882919549942 0.019174759849 0.021305288721 -0.008522114968 2.160307617188 -9.671088867187 2.404599609375
620 1540113166.883922576904 0.020240024285 0.021305288721 -0.008522114968 2.169887695313 -9.671088867187 2.385439453125
621 1540113166.884921550751 0.020240024285 0.021305288721 -0.008522114968 2.169887695313 -9.671088867187 2.375859375000
622 1540113166.885926485062 0.020240024285 0.022370551076 -0.008522114968 2.165097656250 -9.671088867187 2.375859375000
623 1540113166.886922597885 0.020240024285 0.022370551076 -0.008522114968 2.160307617188 -9.671088867187 2.375859375000
624 1540113166.887928485870 0.020240024285 0.021305288721 -0.009587379924 2.165097656250 -9.661508789063 2.366279296875
625 1540113166.888924598694 0.020240024285 0.021305288721 -0.009587379924 2.160307617188 -9.661508789063 2.366279296875
626 1540113166.889925479889 0.020240024285 0.021305288721 -0.009587379924 2.160307617188 -9.661508789063 2.371069335937
627 1540113166.890926599503 0.019174759849 0.021305288721 -0.009587379924 2.169887695313 -9.656718750000 2.380649414063
628 1540113166.891927480698 0.020240024285 0.021305288721 -0.009587379924 2.169887695313 -9.651928710938 2.375859375000
629 1540113166.892932415009 0.020240024285 0.022370551076 -0.008522114968 2.165097656250 -9.651928710938 2.356699218750
630 1540113166.893928527832 0.020240024285 0.022370551076 -0.008522114968 2.165097656250 -9.651928710938 2.351909179688
631 1540113166.894929409027 0.019174759849 0.022370551076 -0.008522114968 2.160307617188 -9.647138671875 2.351909179688
632 1540113166.895930528641 0.019174759849 0.021305288721 -0.009587379924 2.150727539063 -9.651928710938 2.351909179688
633 1540113166.896931409836 0.020240024285 0.021305288721 -0.009587379924 2.141147460938 -9.666298828125 2.347119140625
634 1540113166.897936582565 0.020240024285 0.021305288721 -0.009587379924 2.141147460938 -9.671088867187 2.347119140625
635 1540113166.898933410645 0.019174759849 0.021305288721 -0.008522114968 2.150727539063 -9.661508789063 2.351909179688
636 1540113166.899935483932 0.019174759849 0.021305288721 -0.008522114968 2.160307617188 -9.656718750000 2.351909179688
637 1540113166.900935411453 0.019174759849 0.020240024285 -0.009587379924 2.174677734375 -9.651928710938 2.361489257812
638 1540113166.901936531067 0.020240024285 0.020240024285 -0.009587379924 2.184257812500 -9.642348632813 2.375859375000
639 1540113166.902941465378 0.020240024285 0.021305288721 -0.009587379924 2.179467773438 -9.637558593750 2.380649414063
640 1540113166.903941392899 0.019174759849 0.021305288721 -0.009587379924 2.169887695313 -9.642348632813 2.385439453125
641 1540113166.904938459396 0.019174759849 0.021305288721 -0.008522114968 2.165097656250 -9.642348632813 2.395019531250
642 1540113166.905939579010 0.020240024285 0.021305288721 -0.008522114968 2.155517578125 -9.637558593750 2.390229492188
643 1540113166.906940460205 0.020240024285 0.022370551076 -0.009587379924 2.155517578125 -9.637558593750 2.385439453125
644 1540113166.907941579819 0.020240024285 0.022370551076 -0.009587379924 2.155517578125 -9.647138671875 2.385439453125
645 1540113166.908946514130 0.020240024285 0.022370551076 -0.009587379924 2.160307617188 -9.661508789063 2.385439453125
646 1540113166.909943580627 0.020240024285 0.022370551076 -0.009587379924 2.169887695313 -9.675878906250 2.375859375000
647 1540113166.910945415497 0.020240024285 0.022370551076 -0.009587379924 2.169887695313 -9.680668945313 2.361489257812
648 1540113166.911944389343 0.019174759849 0.021305288721 -0.009587379924 2.160307617188 -9.675878906250 2.361489257812
649 1540113166.912945508957 0.019174759849 0.021305288721 -0.008522114968 2.165097656250 -9.661508789063 2.361489257812
650 1540113166.913951396942 0.018109495413 0.021305288721 -0.008522114968 2.174677734375 -9.661508789063 2.366279296875
651 1540113166.914947509766 0.018109495413 0.021305288721 -0.008522114968 2.179467773438 -9.675878906250 2.375859375000
652 1540113166.915948390961 0.018109495413 0.021305288721 -0.009587379924 2.174677734375 -9.675878906250 2.380649414063
653 1540113166.916949510574 0.018109495413 0.021305288721 -0.009587379924 2.174677734375 -9.666298828125 2.375859375000
654 1540113166.917950391769 0.019174759849 0.021305288721 -0.009587379924 2.179467773438 -9.656718750000 2.375859375000
655 1540113166.918955564499 0.019174759849 0.021305288721 -0.009587379924 2.184257812500 -9.656718750000 2.366279296875
656 1540113166.919951438904 0.019174759849 0.021305288721 -0.009587379924 2.184257812500 -9.661508789063 2.351909179688
657 1540113166.920956611633 0.018109495413 0.021305288721 -0.009587379924 2.184257812500 -9.661508789063 2.351909179688
658 1540113166.921953439713 0.018109495413 0.020240024285 -0.008522114968 2.184257812500 -9.661508789063 2.366279296875
659 1540113166.922954559326 0.019174759849 0.020240024285 -0.008522114968 2.189047851563 -9.656718750000 2.385439453125
660 1540113166.923955440521 0.018109495413 0.020240024285 -0.008522114968 2.198627929687 -9.651928710938 2.380649414063
661 1540113166.924960613251 0.018109495413 0.020240024285 -0.008522114968 2.208208007812 -9.651928710938 2.361489257812
662 1540113166.925957441330 0.019174759849 0.020240024285 -0.009587379924 2.212998046875 -9.647138671875 2.347119140625
663 1540113166.926958560944 0.020240024285 0.020240024285 -0.009587379924 2.208208007812 -9.647138671875 2.347119140625
664 1540113166.927958488464 0.020240024285 0.020240024285 -0.009587379924 2.198627929687 -9.651928710938 2.347119140625
665 1540113166.928959608078 0.019174759849 0.020240024285 -0.009587379924 2.189047851563 -9.647138671875 2.356699218750
666 1540113166.929965496063 0.019174759849 0.021305288721 -0.010652644360 2.189047851563 -9.637558593750 2.366279296875
667 1540113166.930961608887 0.019174759849 0.021305288721 -0.011717907756 2.193837890625 -9.632768554687 2.375859375000
668 1540113166.931966543198 0.019174759849 0.021305288721 -0.010652644360 2.189047851563 -9.632768554687 2.375859375000
669 1540113166.932963609695 0.019174759849 0.021305288721 -0.010652644360 2.184257812500 -9.642348632813 2.375859375000
670 1540113166.933964490891 0.019174759849 0.021305288721 -0.009587379924 2.193837890625 -9.651928710938 2.375859375000
671 1540113166.934969425201 0.019174759849 0.021305288721 -0.009587379924 2.198627929687 -9.661508789063 2.361489257812
672 1540113166.935965538025 0.019174759849 0.021305288721 -0.009587379924 2.198627929687 -9.647138671875 2.366279296875
673 1540113166.936969518661 0.019174759849 0.021305288721 -0.009587379924 2.184257812500 -9.637558593750 2.375859375000
674 1540113166.937967538834 0.019174759849 0.022370551076 -0.009587379924 2.169887695313 -9.651928710938 2.380649414063
675 1540113166.938968420029 0.018109495413 0.022370551076 -0.009587379924 2.160307617188 -9.661508789063 2.380649414063
676 1540113166.939969539642 0.019174759849 0.022370551076 -0.009587379924 2.160307617188 -9.656718750000 2.380649414063
677 1540113166.940970420837 0.019174759849 0.022370551076 -0.009587379924 2.165097656250 -9.642348632813 2.361489257812
678 1540113166.941971540451 0.019174759849 0.022370551076 -0.009587379924 2.174677734375 -9.642348632813 2.356699218750
679 1540113166.942972421646 0.019174759849 0.022370551076 -0.009587379924 2.174677734375 -9.647138671875 2.356699218750
680 1540113166.943973541260 0.019174759849 0.021305288721 -0.009587379924 2.174677734375 -9.651928710938 2.366279296875
681 1540113166.944973468781 0.019174759849 0.021305288721 -0.008522114968 2.179467773438 -9.656718750000 2.371069335937
682 1540113166.945979595184 0.019174759849 0.021305288721 -0.009587379924 2.179467773438 -9.666298828125 2.371069335937
683 1540113166.946975469589 0.019174759849 0.021305288721 -0.009587379924 2.174677734375 -9.671088867187 2.366279296875
684 1540113166.947979450226 0.019174759849 0.021305288721 -0.009587379924 2.169887695313 -9.675878906250 2.356699218750
685 1540113166.948977470398 0.019174759849 0.022370551076 -0.009587379924 2.165097656250 -9.671088867187 2.361489257812
686 1540113166.949978590012 0.019174759849 0.022370551076 -0.009587379924 2.160307617188 -9.661508789063 2.371069335937
687 1540113166.950979471207 0.019174759849 0.022370551076 -0.009587379924 2.160307617188 -9.651928710938 2.361489257812
688 1540113166.951979398727 0.019174759849 0.022370551076 -0.010652644360 2.165097656250 -9.651928710938 2.342329101563
689 1540113166.952981472015 0.019174759849 0.021305288721 -0.009587379924 2.169887695313 -9.651928710938 2.327958984375
690 1540113166.953980445862 0.019174759849 0.021305288721 -0.009587379924 2.169887695313 -9.651928710938 2.323168945313
691 1540113166.954981565475 0.019174759849 0.020240024285 -0.009587379924 2.174677734375 -9.651928710938 2.313588867188
692 1540113166.955987453461 0.019174759849 0.020240024285 -0.009587379924 2.184257812500 -9.647138671875 2.327958984375
693 1540113166.956983566284 0.018109495413 0.020240024285 -0.008522114968 2.179467773438 -9.637558593750 2.356699218750
694 1540113166.957989454269 0.018109495413 0.020240024285 -0.008522114968 2.165097656250 -9.637558593750 2.361489257812
695 1540113166.958985567093 0.018109495413 0.020240024285 -0.009587379924 2.155517578125 -9.637558593750 2.351909179688
696 1540113166.959986448288 0.019174759849 0.020240024285 -0.008522114968 2.150727539063 -9.632768554687 2.337539062500
697 1540113166.960987567902 0.019174759849 0.020240024285 -0.008522114968 2.155517578125 -9.632768554687 2.323168945313
698 1540113166.961992502213 0.019174759849 0.020240024285 -0.009587379924 2.155517578125 -9.637558593750 2.332749023438
699 1540113166.962988615036 0.019174759849 0.021305288721 -0.010652644360 2.165097656250 -9.642348632813 2.347119140625
700 1540113166.963991403580 0.019174759849 0.021305288721 -0.010652644360 2.174677734375 -9.647138671875 2.356699218750
701 1540113166.964990615845 0.019174759849 0.021305288721 -0.010652644360 2.174677734375 -9.656718750000 2.356699218750
702 1540113166.965991497040 0.019174759849 0.021305288721 -0.009587379924 2.160307617188 -9.666298828125 2.351909179688
703 1540113166.966993570328 0.018109495413 0.021305288721 -0.009587379924 2.145937500000 -9.666298828125 2.347119140625
704 1540113166.967993497849 0.018109495413 0.021305288721 -0.009587379924 2.141147460938 -9.656718750000 2.337539062500
705 1540113166.968998432159 0.019174759849 0.021305288721 -0.009587379924 2.155517578125 -9.656718750000 2.337539062500
706 1540113166.969995498657 0.019174759849 0.022370551076 -0.009587379924 2.169887695313 -9.656718750000 2.347119140625
707 1540113166.970995426178 0.018109495413 0.022370551076 -0.008522114968 2.179467773438 -9.651928710938 2.356699218750
708 1540113166.972001552582 0.018109495413 0.022370551076 -0.008522114968 2.189047851563 -9.656718750000 2.361489257812
709 1540113166.972997426987 0.018109495413 0.021305288721 -0.008522114968 2.179467773438 -9.656718750000 2.356699218750
710 1540113166.974002599716 0.018109495413 0.021305288721 -0.009587379924 2.174677734375 -9.651928710938 2.356699218750
711 1540113166.974999427795 0.019174759849 0.021305288721 -0.009587379924 2.174677734375 -9.651928710938 2.375859375000
712 1540113166.976000547409 0.019174759849 0.021305288721 -0.009587379924 2.174677734375 -9.651928710938 2.395019531250
713 1540113166.977001428604 0.019174759849 0.021305288721 -0.009587379924 2.174677734375 -9.656718750000 2.404599609375
714 1540113166.978002548218 0.019174759849 0.022370551076 -0.009587379924 2.179467773438 -9.661508789063 2.395019531250
715 1540113166.979007482529 0.019174759849 0.022370551076 -0.009587379924 2.179467773438 -9.675878906250 2.385439453125
716 1540113166.980003595352 0.019174759849 0.022370551076 -0.009587379924 2.189047851563 -9.680668945313 2.380649414063
717 1540113166.981004476547 0.020240024285 0.022370551076 -0.010652644360 2.193837890625 -9.680668945313 2.361489257812
718 1540113166.982005596161 0.019174759849 0.022370551076 -0.010652644360 2.193837890625 -9.685458984375 2.351909179688
719 1540113166.983011484146 0.019174759849 0.022370551076 -0.009587379924 2.203417968750 -9.685458984375 2.342329101563
720 1540113166.984007596970 0.019174759849 0.022370551076 -0.009587379924 2.198627929687 -9.685458984375 2.323168945313
721 1540113166.985012531281 0.019174759849 0.021305288721 -0.008522114968 2.179467773438 -9.685458984375 2.318378906250
722 1540113166.986009597778 0.019174759849 0.022370551076 -0.008522114968 2.179467773438 -9.680668945313 2.323168945313
723 1540113166.987010478973 0.019174759849 0.022370551076 -0.009587379924 2.189047851563 -9.671088867187 2.318378906250
724 1540113166.988010406494 0.019174759849 0.022370551076 -0.009587379924 2.193837890625 -9.666298828125 2.327958984375
725 1540113166.989011526108 0.019174759849 0.021305288721 -0.008522114968 2.184257812500 -9.666298828125 2.347119140625
726 1540113166.990015506744 0.019174759849 0.022370551076 -0.008522114968 2.155517578125 -9.666298828125 2.356699218750
727 1540113166.991013526917 0.020240024285 0.022370551076 -0.009587379924 2.136357421875 -9.661508789063 2.361489257812
728 1540113166.992014408112 0.020240024285 0.022370551076 -0.009587379924 2.136357421875 -9.651928710938 2.371069335937
729 1540113166.993015527725 0.019174759849 0.022370551076 -0.009587379924 2.155517578125 -9.647138671875 2.366279296875
730 1540113166.994016408920 0.018109495413 0.022370551076 -0.009587379924 2.169887695313 -9.642348632813 2.366279296875
731 1540113166.995021581650 0.018109495413 0.022370551076 -0.009587379924 2.174677734375 -9.642348632813 2.366279296875
732 1540113166.996017456055 0.018109495413 0.022370551076 -0.009587379924 2.169887695313 -9.647138671875 2.356699218750
733 1540113166.997020483017 0.018109495413 0.022370551076 -0.009587379924 2.165097656250 -9.661508789063 2.361489257812
734 1540113166.998019456863 0.018109495413 0.022370551076 -0.008522114968 2.160307617188 -9.666298828125 2.356699218750
735 1540113166.999020576477 0.018109495413 0.022370551076 -0.008522114968 2.155517578125 -9.666298828125 2.361489257812
736 1540113167.000021457672 0.018109495413 0.021305288721 -0.008522114968 2.155517578125 -9.661508789063 2.371069335937
737 1540113167.001025438309 0.019174759849 0.021305288721 -0.007456850532 2.160307617188 -9.656718750000 2.380649414063
738 1540113167.002023458481 0.019174759849 0.021305288721 -0.007456850532 2.160307617188 -9.651928710938 2.361489257812
739 1540113167.003024578094 0.019174759849 0.021305288721 -0.007456850532 2.155517578125 -9.651928710938 2.342329101563
740 1540113167.004024505615 0.019174759849 0.021305288721 -0.007456850532 2.145937500000 -9.656718750000 2.332749023438
741 1540113167.005025386810 0.019174759849 0.021305288721 -0.007456850532 2.150727539063 -9.661508789063 2.327958984375
742 1540113167.006031513214 0.019174759849 0.021305288721 -0.008522114968 2.150727539063 -9.661508789063 2.323168945313
743 1540113167.007027387619 0.019174759849 0.020240024285 -0.008522114968 2.145937500000 -9.666298828125 2.327958984375
744 1540113167.008030414581 0.019174759849 0.021305288721 -0.007456850532 2.150727539063 -9.666298828125 2.332749023438
745 1540113167.009034395218 0.019174759849 0.021305288721 -0.008522114968 2.169887695313 -9.666298828125 2.337539062500
746 1540113167.010030508041 0.019174759849 0.022370551076 -0.009587379924 2.189047851563 -9.666298828125 2.351909179688
747 1540113167.011035442352 0.019174759849 0.022370551076 -0.009587379924 2.189047851563 -9.666298828125 2.371069335937
748 1540113167.012032508850 0.019174759849 0.022370551076 -0.010652644360 2.184257812500 -9.671088867187 2.375859375000
749 1540113167.013033390045 0.018109495413 0.021305288721 -0.010652644360 2.184257812500 -9.671088867187 2.361489257812
750 1540113167.014033555984 0.019174759849 0.021305288721 -0.009587379924 2.179467773438 -9.656718750000 2.356699218750
751 1540113167.015034437180 0.019174759849 0.021305288721 -0.009587379924 2.179467773438 -9.647138671875 2.361489257812
752 1540113167.016040563583 0.019174759849 0.021305288721 -0.009587379924 2.179467773438 -9.651928710938 2.356699218750
753 1540113167.017036437988 0.019174759849 0.021305288721 -0.009587379924 2.179467773438 -9.647138671875 2.351909179688
754 1540113167.018041610718 0.019174759849 0.021305288721 -0.009587379924 2.179467773438 -9.632768554687 2.351909179688
755 1540113167.019038438797 0.019174759849 0.021305288721 -0.008522114968 2.174677734375 -9.627978515625 2.361489257812
756 1540113167.020039558411 0.019174759849 0.021305288721 -0.008522114968 2.169887695313 -9.627978515625 2.371069335937
757 1540113167.021039485931 0.019174759849 0.021305288721 -0.008522114968 2.169887695313 -9.632768554687 2.366279296875
758 1540113167.022045612335 0.019174759849 0.020240024285 -0.008522114968 2.160307617188 -9.637558593750 2.356699218750
759 1540113167.023041486740 0.019174759849 0.020240024285 -0.009587379924 2.160307617188 -9.642348632813 2.356699218750
760 1540113167.024043560028 0.019174759849 0.020240024285 -0.009587379924 2.169887695313 -9.642348632813 2.366279296875
761 1540113167.025043487549 0.018109495413 0.020240024285 -0.009587379924 2.174677734375 -9.651928710938 2.366279296875
762 1540113167.026044607162 0.018109495413 0.020240024285 -0.009587379924 2.179467773438 -9.666298828125 2.366279296875
763 1540113167.027049541473 0.019174759849 0.020240024285 -0.009587379924 2.179467773438 -9.661508789063 2.366279296875
764 1540113167.028046607971 0.019174759849 0.020240024285 -0.009587379924 2.184257812500 -9.656718750000 2.356699218750
765 1540113167.029047489166 0.018109495413 0.020240024285 -0.009587379924 2.189047851563 -9.661508789063 2.347119140625
766 1540113167.030047416687 0.019174759849 0.021305288721 -0.009587379924 2.193837890625 -9.661508789063 2.342329101563
767 1540113167.031048536301 0.019174759849 0.021305288721 -0.009587379924 2.193837890625 -9.656718750000 2.337539062500
768 1540113167.032054424286 0.019174759849 0.021305288721 -0.009587379924 2.184257812500 -9.656718750000 2.327958984375
769 1540113167.033050537109 0.019174759849 0.021305288721 -0.009587379924 2.169887695313 -9.661508789063 2.323168945313
770 1540113167.034053564072 0.019174759849 0.021305288721 -0.010652644360 2.169887695313 -9.661508789063 2.327958984375
771 1540113167.035052537918 0.019174759849 0.021305288721 -0.009587379924 2.169887695313 -9.661508789063 2.351909179688
772 1540113167.036053419113 0.019174759849 0.021305288721 -0.009587379924 2.169887695313 -9.656718750000 2.361489257812
773 1540113167.037054538727 0.019174759849 0.021305288721 -0.009587379924 2.169887695313 -9.651928710938 2.351909179688
774 1540113167.038059473038 0.019174759849 0.020240024285 -0.009587379924 2.165097656250 -9.656718750000 2.356699218750
775 1540113167.039055585861 0.019174759849 0.020240024285 -0.009587379924 2.160307617188 -9.661508789063 2.361489257812
776 1540113167.040056467056 0.020240024285 0.020240024285 -0.009587379924 2.160307617188 -9.656718750000 2.356699218750
777 1540113167.041057586670 0.020240024285 0.020240024285 -0.008522114968 2.160307617188 -9.661508789063 2.356699218750
778 1540113167.042058467865 0.020240024285 0.020240024285 -0.008522114968 2.165097656250 -9.661508789063 2.366279296875
779 1540113167.043063402176 0.020240024285 0.020240024285 -0.008522114968 2.174677734375 -9.661508789063 2.366279296875
780 1540113167.044060468674 0.019174759849 0.021305288721 -0.008522114968 2.174677734375 -9.651928710938 2.375859375000
781 1540113167.045064449310 0.019174759849 0.021305288721 -0.008522114968 2.169887695313 -9.642348632813 2.390229492188
782 1540113167.046061515808 0.020240024285 0.021305288721 -0.009587379924 2.165097656250 -9.647138671875 2.375859375000
783 1540113167.047062397003 0.020240024285 0.021305288721 -0.009587379924 2.169887695313 -9.661508789063 2.356699218750
784 1540113167.048068523407 0.020240024285 0.021305288721 -0.009587379924 2.174677734375 -9.666298828125 2.361489257812
785 1540113167.049064397812 0.020240024285 0.021305288721 -0.010652644360 2.174677734375 -9.666298828125 2.366279296875
786 1540113167.050066471100 0.020240024285 0.021305288721 -0.010652644360 2.174677734375 -9.675878906250 2.371069335937
787 1540113167.051066398621 0.019174759849 0.021305288721 -0.009587379924 2.174677734375 -9.680668945313 2.361489257812
788 1540113167.052067518234 0.019174759849 0.021305288721 -0.009587379924 2.179467773438 -9.680668945313 2.361489257812
789 1540113167.053072452545 0.019174759849 0.021305288721 -0.009587379924 2.179467773438 -9.680668945313 2.356699218750
790 1540113167.054069519043 0.018109495413 0.021305288721 -0.009587379924 2.169887695313 -9.675878906250 2.351909179688
791 1540113167.055074453354 0.018109495413 0.021305288721 -0.009587379924 2.169887695313 -9.675878906250 2.356699218750
792 1540113167.056070566177 0.018109495413 0.021305288721 -0.010652644360 2.174677734375 -9.671088867187 2.361489257812
793 1540113167.057071447372 0.018109495413 0.021305288721 -0.010652644360 2.179467773438 -9.666298828125 2.371069335937
794 1540113167.058072566986 0.018109495413 0.022370551076 -0.010652644360 2.179467773438 -9.661508789063 2.366279296875
795 1540113167.059077501297 0.019174759849 0.021305288721 -0.009587379924 2.174677734375 -9.651928710938 2.375859375000
796 1540113167.060074567795 0.019174759849 0.021305288721 -0.009587379924 2.179467773438 -9.647138671875 2.385439453125
797 1540113167.061077594757 0.019174759849 0.021305288721 -0.008522114968 2.174677734375 -9.647138671875 2.390229492188
798 1540113167.062076568604 0.018109495413 0.021305288721 -0.008522114968 2.179467773438 -9.647138671875 2.390229492188
799 1540113167.063076496124 0.019174759849 0.020240024285 -0.008522114968 2.179467773438 -9.651928710938 2.375859375000
800 1540113167.064078569412 0.019174759849 0.020240024285 -0.008522114968 2.174677734375 -9.651928710938 2.356699218750
801 1540113167.065078496933 0.019174759849 0.021305288721 -0.008522114968 2.174677734375 -9.647138671875 2.347119140625
802 1540113167.066083431244 0.019174759849 0.021305288721 -0.008522114968 2.179467773438 -9.642348632813 2.342329101563
803 1540113167.067079544067 0.019174759849 0.021305288721 -0.008522114968 2.184257812500 -9.642348632813 2.337539062500
804 1540113167.068080425262 0.019174759849 0.021305288721 -0.008522114968 2.184257812500 -9.651928710938 2.332749023438
805 1540113167.069085597992 0.019174759849 0.021305288721 -0.008522114968 2.184257812500 -9.661508789063 2.332749023438
806 1540113167.070082426071 0.019174759849 0.021305288721 -0.009587379924 2.189047851563 -9.666298828125 2.342329101563
807 1540113167.071087598801 0.019174759849 0.021305288721 -0.009587379924 2.189047851563 -9.661508789063 2.347119140625
808 1540113167.072084426880 0.019174759849 0.021305288721 -0.009587379924 2.184257812500 -9.656718750000 2.342329101563
809 1540113167.073084592819 0.019174759849 0.022370551076 -0.009587379924 2.179467773438 -9.651928710938 2.327958984375
810 1540113167.074085474014 0.019174759849 0.022370551076 -0.009587379924 2.174677734375 -9.642348632813 2.337539062500
811 1540113167.075086593628 0.019174759849 0.022370551076 -0.010652644360 2.174677734375 -9.642348632813 2.361489257812
812 1540113167.076087474823 0.019174759849 0.022370551076 -0.010652644360 2.179467773438 -9.651928710938 2.380649414063
813 1540113167.077089548111 0.019174759849 0.022370551076 -0.009587379924 2.179467773438 -9.666298828125 2.390229492188
814 1540113167.078089475632 0.019174759849 0.022370551076 -0.009587379924 2.179467773438 -9.666298828125 2.390229492188
815 1540113167.079090595245 0.019174759849 0.022370551076 -0.008522114968 2.184257812500 -9.661508789063 2.380649414063
816 1540113167.080095529556 0.019174759849 0.022370551076 -0.009587379924 2.193837890625 -9.656718750000 2.356699218750
817 1540113167.081091403961 0.019174759849 0.022370551076 -0.009587379924 2.193837890625 -9.656718750000 2.337539062500
818 1540113167.082097530365 0.019174759849 0.021305288721 -0.010652644360 2.189047851563 -9.651928710938 2.347119140625
819 1540113167.083093404770 0.019174759849 0.021305288721 -0.010652644360 2.189047851563 -9.656718750000 2.361489257812
820 1540113167.084094524384 0.019174759849 0.021305288721 -0.010652644360 2.174677734375 -9.661508789063 2.356699218750
821 1540113167.085095405579 0.019174759849 0.021305288721 -0.009587379924 2.169887695313 -9.661508789063 2.342329101563
822 1540113167.086096525192 0.019174759849 0.021305288721 -0.009587379924 2.169887695313 -9.661508789063 2.332749023438
823 1540113167.087099552155 0.019174759849 0.021305288721 -0.009587379924 2.160307617188 -9.671088867187 2.327958984375
824 1540113167.088098526001 0.019174759849 0.021305288721 -0.009587379924 2.160307617188 -9.675878906250 2.332749023438
825 1540113167.089099407196 0.020240024285 0.021305288721 -0.009587379924 2.165097656250 -9.671088867187 2.332749023438
826 1540113167.090099573135 0.020240024285 0.021305288721 -0.009587379924 2.169887695313 -9.661508789063 2.327958984375
827 1540113167.091100454330 0.020240024285 0.020240024285 -0.010652644360 2.165097656250 -9.651928710938 2.337539062500
828 1540113167.092106580734 0.020240024285 0.020240024285 -0.009587379924 2.169887695313 -9.647138671875 2.342329101563
829 1540113167.093102455139 0.020240024285 0.021305288721 -0.009587379924 2.179467773438 -9.647138671875 2.332749023438
830 1540113167.094104528427 0.020240024285 0.021305288721 -0.009587379924 2.184257812500 -9.642348632813 2.337539062500
831 1540113167.095104455948 0.019174759849 0.021305288721 -0.009587379924 2.184257812500 -9.647138671875 2.342329101563
832 1540113167.096109390259 0.019174759849 0.021305288721 -0.009587379924 2.174677734375 -9.666298828125 2.351909179688
833 1540113167.097106456757 0.019174759849 0.020240024285 -0.009587379924 2.169887695313 -9.675878906250 2.366279296875
834 1540113167.098110437393 0.019174759849 0.021305288721 -0.008522114968 2.169887695313 -9.675878906250 2.371069335937
835 1540113167.099107503891 0.019174759849 0.021305288721 -0.008522114968 2.160307617188 -9.675878906250 2.371069335937
836 1540113167.100108385086 0.019174759849 0.022370551076 -0.008522114968 2.155517578125 -9.671088867187 2.366279296875
837 1540113167.101109504700 0.019174759849 0.022370551076 -0.008522114968 2.150727539063 -9.671088867187 2.366279296875
838 1540113167.102110385895 0.019174759849 0.022370551076 -0.008522114968 2.145937500000 -9.671088867187 2.361489257812
839 1540113167.103115558624 0.019174759849 0.022370551076 -0.008522114968 2.155517578125 -9.680668945313 2.371069335937
840 1540113167.104112386703 0.019174759849 0.022370551076 -0.008522114968 2.165097656250 -9.690249023438 2.375859375000
841 1540113167.105113506317 0.020240024285 0.022370551076 -0.008522114968 2.174677734375 -9.695039062500 2.375859375000
842 1540113167.106118440628 0.020240024285 0.022370551076 -0.008522114968 2.184257812500 -9.685458984375 2.380649414063
843 1540113167.107114553452 0.020240024285 0.022370551076 -0.009587379924 2.184257812500 -9.680668945313 2.390229492188
844 1540113167.108120441437 0.019174759849 0.022370551076 -0.009587379924 2.184257812500 -9.675878906250 2.399809570313
845 1540113167.109116554260 0.019174759849 0.022370551076 -0.009587379924 2.174677734375 -9.661508789063 2.399809570313
846 1540113167.110117435455 0.019174759849 0.022370551076 -0.009587379924 2.165097656250 -9.656718750000 2.399809570313
847 1540113167.111118555069 0.018109495413 0.021305288721 -0.009587379924 2.174677734375 -9.661508789063 2.395019531250
848 1540113167.112119436264 0.018109495413 0.021305288721 -0.008522114968 2.174677734375 -9.671088867187 2.395019531250
849 1540113167.113124608994 0.019174759849 0.021305288721 -0.008522114968 2.179467773438 -9.675878906250 2.385439453125
850 1540113167.114120483398 0.019174759849 0.021305288721 -0.007456850532 2.184257812500 -9.671088867187 2.380649414063
851 1540113167.115121603012 0.019174759849 0.021305288721 -0.007456850532 2.184257812500 -9.666298828125 2.366279296875
852 1540113167.116122484207 0.019174759849 0.021305288721 -0.008522114968 2.193837890625 -9.666298828125 2.351909179688
853 1540113167.117123603821 0.019174759849 0.021305288721 -0.008522114968 2.198627929687 -9.661508789063 2.351909179688
854 1540113167.118124485016 0.019174759849 0.021305288721 -0.009587379924 2.193837890625 -9.651928710938 2.366279296875
855 1540113167.119129419327 0.019174759849 0.021305288721 -0.009587379924 2.189047851563 -9.647138671875 2.380649414063
856 1540113167.120126485825 0.020240024285 0.021305288721 -0.009587379924 2.198627929687 -9.647138671875 2.395019531250
857 1540113167.121127605438 0.020240024285 0.021305288721 -0.009587379924 2.208208007812 -9.651928710938 2.390229492188
858 1540113167.122128486633 0.020240024285 0.021305288721 -0.009587379924 2.208208007812 -9.656718750000 2.375859375000
859 1540113167.123128414154 0.020240024285 0.021305288721 -0.009587379924 2.208208007812 -9.661508789063 2.366279296875
860 1540113167.124133586884 0.019174759849 0.021305288721 -0.009587379924 2.208208007812 -9.661508789063 2.361489257812
861 1540113167.125130414963 0.019174759849 0.021305288721 -0.009587379924 2.203417968750 -9.666298828125 2.366279296875
862 1540113167.126131534576 0.019174759849 0.022370551076 -0.009587379924 2.193837890625 -9.671088867187 2.385439453125
863 1540113167.127132415771 0.018109495413 0.022370551076 -0.009587379924 2.193837890625 -9.671088867187 2.395019531250
864 1540113167.128133535385 0.018109495413 0.022370551076 -0.009587379924 2.193837890625 -9.661508789063 2.385439453125
865 1540113167.129138469696 0.018109495413 0.022370551076 -0.009587379924 2.184257812500 -9.656718750000 2.361489257812
866 1540113167.130135536194 0.018109495413 0.022370551076 -0.009587379924 2.179467773438 -9.661508789063 2.351909179688
867 1540113167.131138563156 0.019174759849 0.022370551076 -0.008522114968 2.165097656250 -9.666298828125 2.361489257812
868 1540113167.132136583328 0.019174759849 0.022370551076 -0.008522114968 2.150727539063 -9.666298828125 2.361489257812
869 1540113167.133137464523 0.018109495413 0.022370551076 -0.007456850532 2.150727539063 -9.666298828125 2.356699218750
870 1540113167.134138584137 0.018109495413 0.022370551076 -0.008522114968 2.165097656250 -9.671088867187 2.351909179688
871 1540113167.135144472122 0.018109495413 0.022370551076 -0.008522114968 2.169887695313 -9.675878906250 2.351909179688
872 1540113167.136140584946 0.019174759849 0.022370551076 -0.008522114968 2.169887695313 -9.680668945313 2.356699218750
873 1540113167.137141466141 0.019174759849 0.022370551076 -0.008522114968 2.169887695313 -9.685458984375 2.361489257812
874 1540113167.138142585754 0.019174759849 0.021305288721 -0.009587379924 2.165097656250 -9.680668945313 2.361489257812
875 1540113167.139143466949 0.019174759849 0.021305288721 -0.009587379924 2.169887695313 -9.671088867187 2.366279296875
876 1540113167.140148401260 0.019174759849 0.021305288721 -0.010652644360 2.179467773438 -9.671088867187 2.375859375000
877 1540113167.141144514084 0.019174759849 0.022370551076 -0.010652644360 2.179467773438 -9.685458984375 2.380649414063
878 1540113167.142148494720 0.019174759849 0.022370551076 -0.010652644360 2.169887695313 -9.685458984375 2.375859375000
879 1540113167.143146514893 0.019174759849 0.022370551076 -0.009587379924 2.169887695313 -9.675878906250 2.361489257812
880 1540113167.144147396088 0.019174759849 0.022370551076 -0.008522114968 2.174677734375 -9.671088867187 2.351909179688
881 1540113167.145152568817 0.019174759849 0.022370551076 -0.008522114968 2.184257812500 -9.671088867187 2.342329101563
882 1540113167.146149396896 0.019174759849 0.022370551076 -0.007456850532 2.184257812500 -9.675878906250 2.347119140625
883 1540113167.147151470184 0.019174759849 0.022370551076 -0.007456850532 2.179467773438 -9.675878906250 2.351909179688
884 1540113167.148150444031 0.019174759849 0.023435815512 -0.007456850532 2.189047851563 -9.671088867187 2.356699218750
885 1540113167.149151563644 0.019174759849 0.022370551076 -0.007456850532 2.198627929687 -9.656718750000 2.361489257812
886 1540113167.150157451630 0.019174759849 0.022370551076 -0.008522114968 2.203417968750 -9.642348632813 2.366279296875
887 1540113167.151153564453 0.019174759849 0.022370551076 -0.007456850532 2.198627929687 -9.637558593750 2.361489257812
888 1540113167.152159452438 0.019174759849 0.022370551076 -0.007456850532 2.198627929687 -9.637558593750 2.361489257812
889 1540113167.153155565262 0.019174759849 0.021305288721 -0.007456850532 2.193837890625 -9.637558593750 2.371069335937
890 1540113167.154156446457 0.019174759849 0.021305288721 -0.007456850532 2.184257812500 -9.651928710938 2.385439453125
891 1540113167.155157566071 0.020240024285 0.021305288721 -0.008522114968 2.179467773438 -9.651928710938 2.395019531250
892 1540113167.156162500381 0.020240024285 0.021305288721 -0.009587379924 2.179467773438 -9.656718750000 2.399809570313
893 1540113167.157158613205 0.019174759849 0.021305288721 -0.008522114968 2.179467773438 -9.661508789063 2.399809570313
894 1540113167.158161401749 0.019174759849 0.022370551076 -0.008522114968 2.165097656250 -9.661508789063 2.399809570313
895 1540113167.159160614014 0.019174759849 0.022370551076 -0.008522114968 2.150727539063 -9.666298828125 2.395019531250
896 1540113167.160161495209 0.019174759849 0.022370551076 -0.008522114968 2.136357421875 -9.675878906250 2.385439453125
897 1540113167.161162614822 0.019174759849 0.021305288721 -0.009587379924 2.131567382812 -9.680668945313 2.380649414063
898 1540113167.162163496017 0.019174759849 0.021305288721 -0.009587379924 2.136357421875 -9.680668945313 2.371069335937
899 1540113167.163164615631 0.019174759849 0.021305288721 -0.009587379924 2.150727539063 -9.690249023438 2.366279296875
900 1540113167.164165496826 0.019174759849 0.022370551076 -0.009587379924 2.160307617188 -9.690249023438 2.361489257812
901 1540113167.165165424347 0.019174759849 0.022370551076 -0.009587379924 2.174677734375 -9.680668945313 2.356699218750
902 1540113167.166171550751 0.019174759849 0.021305288721 -0.009587379924 2.189047851563 -9.666298828125 2.351909179688
903 1540113167.167167425156 0.019174759849 0.021305288721 -0.010652644360 2.189047851563 -9.651928710938 2.356699218750
904 1540113167.168172597885 0.019174759849 0.021305288721 -0.009587379924 2.184257812500 -9.637558593750 2.356699218750
905 1540113167.169169425964 0.019174759849 0.021305288721 -0.009587379924 2.174677734375 -9.642348632813 2.351909179688
906 1540113167.170170545578 0.019174759849 0.021305288721 -0.008522114968 2.174677734375 -9.651928710938 2.351909179688
907 1540113167.171171426773 0.019174759849 0.021305288721 -0.008522114968 2.184257812500 -9.656718750000 2.356699218750
908 1540113167.172176599503 0.019174759849 0.021305288721 -0.008522114968 2.184257812500 -9.661508789063 2.356699218750
909 1540113167.173172473907 0.019174759849 0.021305288721 -0.008522114968 2.184257812500 -9.656718750000 2.347119140625
910 1540113167.174174547195 0.019174759849 0.021305288721 -0.007456850532 2.189047851563 -9.651928710938 2.347119140625
911 1540113167.175174474716 0.019174759849 0.021305288721 -0.007456850532 2.193837890625 -9.647138671875 2.361489257812
912 1540113167.176175594330 0.020240024285 0.021305288721 -0.008522114968 2.198627929687 -9.651928710938 2.375859375000
913 1540113167.177180528641 0.020240024285 0.021305288721 -0.009587379924 2.198627929687 -9.661508789063 2.390229492188
914 1540113167.178177595139 0.020240024285 0.021305288721 -0.009587379924 2.193837890625 -9.671088867187 2.395019531250
915 1540113167.179182529449 0.019174759849 0.021305288721 -0.008522114968 2.189047851563 -9.675878906250 2.385439453125
916 1540113167.180179595947 0.019174759849 0.021305288721 -0.009587379924 2.184257812500 -9.675878906250 2.390229492188
917 1540113167.181179523468 0.019174759849 0.021305288721 -0.009587379924 2.184257812500 -9.680668945313 2.385439453125
918 1540113167.182184457779 0.019174759849 0.021305288721 -0.008522114968 2.179467773438 -9.675878906250 2.375859375000
919 1540113167.183180570602 0.019174759849 0.021305288721 -0.008522114968 2.169887695313 -9.671088867187 2.375859375000
920 1540113167.184184551239 0.019174759849 0.021305288721 -0.009587379924 2.165097656250 -9.666298828125 2.380649414063
921 1540113167.185182571411 0.019174759849 0.021305288721 -0.010652644360 2.165097656250 -9.671088867187 2.385439453125
922 1540113167.186183452606 0.018109495413 0.020240024285 -0.009587379924 2.165097656250 -9.675878906250 2.390229492188
923 1540113167.187184572220 0.018109495413 0.020240024285 -0.008522114968 2.165097656250 -9.671088867187 2.380649414063
924 1540113167.188185453415 0.018109495413 0.020240024285 -0.008522114968 2.169887695313 -9.661508789063 2.380649414063
925 1540113167.189190387726 0.018109495413 0.021305288721 -0.008522114968 2.165097656250 -9.651928710938 2.390229492188
926 1540113167.190187454224 0.018109495413 0.021305288721 -0.008522114968 2.165097656250 -9.656718750000 2.380649414063
927 1540113167.191187620163 0.018109495413 0.021305288721 -0.008522114968 2.160307617188 -9.661508789063 2.356699218750
928 1540113167.192188501358 0.018109495413 0.021305288721 -0.008522114968 2.160307617188 -9.661508789063 2.332749023438
929 1540113167.193194389343 0.019174759849 0.021305288721 -0.009587379924 2.165097656250 -9.661508789063 2.327958984375
930 1540113167.194190502167 0.019174759849 0.021305288721 -0.010652644360 2.169887695313 -9.661508789063 2.327958984375
931 1540113167.195194482803 0.019174759849 0.020240024285 -0.010652644360 2.165097656250 -9.661508789063 2.332749023438
932 1540113167.196192502975 0.019174759849 0.021305288721 -0.010652644360 2.165097656250 -9.661508789063 2.342329101563
933 1540113167.197193384171 0.019174759849 0.021305288721 -0.009587379924 2.174677734375 -9.661508789063 2.356699218750
934 1540113167.198194503784 0.019174759849 0.021305288721 -0.009587379924 2.184257812500 -9.661508789063 2.371069335937
935 1540113167.199195384979 0.019174759849 0.021305288721 -0.010652644360 2.189047851563 -9.666298828125 2.395019531250
936 1540113167.200200557709 0.020240024285 0.021305288721 -0.010652644360 2.193837890625 -9.671088867187 2.395019531250
937 1540113167.201196432114 0.020240024285 0.020240024285 -0.010652644360 2.184257812500 -9.671088867187 2.380649414063
938 1540113167.202197551727 0.019174759849 0.020240024285 -0.010652644360 2.174677734375 -9.675878906250 2.361489257812
939 1540113167.203203439713 0.019174759849 0.020240024285 -0.009587379924 2.169887695313 -9.675878906250 2.347119140625
940 1540113167.204199552536 0.019174759849 0.020240024285 -0.009587379924 2.174677734375 -9.671088867187 2.337539062500
941 1540113167.205204486847 0.019174759849 0.020240024285 -0.010652644360 2.179467773438 -9.671088867187 2.337539062500
942 1540113167.206201553345 0.018109495413 0.020240024285 -0.010652644360 2.179467773438 -9.666298828125 2.337539062500
943 1540113167.207202434540 0.018109495413 0.021305288721 -0.010652644360 2.184257812500 -9.671088867187 2.332749023438
944 1540113167.208202600479 0.019174759849 0.021305288721 -0.010652644360 2.184257812500 -9.671088867187 2.337539062500
945 1540113167.209203481674 0.019174759849 0.021305288721 -0.009587379924 2.179467773438 -9.675878906250 2.361489257812
946 1540113167.210204601288 0.019174759849 0.021305288721 -0.009587379924 2.174677734375 -9.671088867187 2.371069335937
947 1540113167.211207389832 0.019174759849 0.021305288721 -0.009587379924 2.165097656250 -9.671088867187 2.366279296875
948 1540113167.212206602097 0.019174759849 0.021305288721 -0.009587379924 2.160307617188 -9.671088867187 2.361489257812
949 1540113167.213207483292 0.020240024285 0.021305288721 -0.009587379924 2.160307617188 -9.671088867187 2.356699218750
950 1540113167.214208602905 0.020240024285 0.021305288721 -0.009587379924 2.160307617188 -9.671088867187 2.361489257812
951 1540113167.215209484100 0.020240024285 0.021305288721 -0.009587379924 2.160307617188 -9.666298828125 2.366279296875
952 1540113167.216214418411 0.020240024285 0.021305288721 -0.009587379924 2.160307617188 -9.666298828125 2.356699218750
953 1540113167.217210531235 0.020240024285 0.021305288721 -0.009587379924 2.160307617188 -9.671088867187 2.351909179688
954 1540113167.218212604523 0.020240024285 0.022370551076 -0.009587379924 2.160307617188 -9.671088867187 2.347119140625
955 1540113167.219212532043 0.020240024285 0.022370551076 -0.009587379924 2.160307617188 -9.661508789063 2.351909179688
956 1540113167.220213413239 0.020240024285 0.021305288721 -0.009587379924 2.169887695313 -9.656718750000 2.351909179688
957 1540113167.221218585968 0.020240024285 0.021305288721 -0.009587379924 2.169887695313 -9.661508789063 2.351909179688
958 1540113167.222215414047 0.020240024285 0.021305288721 -0.009587379924 2.179467773438 -9.666298828125 2.351909179688
959 1540113167.223216533661 0.020240024285 0.021305288721 -0.008522114968 2.184257812500 -9.675878906250 2.347119140625
960 1540113167.224217414856 0.020240024285 0.021305288721 -0.008522114968 2.174677734375 -9.680668945313 2.347119140625
961 1540113167.225217580795 0.020240024285 0.021305288721 -0.008522114968 2.174677734375 -9.675878906250 2.342329101563
962 1540113167.226223468781 0.020240024285 0.020240024285 -0.008522114968 2.179467773438 -9.661508789063 2.342329101563
963 1540113167.227219581604 0.020240024285 0.020240024285 -0.008522114968 2.174677734375 -9.651928710938 2.347119140625
964 1540113167.228223562241 0.019174759849 0.020240024285 -0.008522114968 2.160307617188 -9.642348632813 2.347119140625
965 1540113167.229221582413 0.019174759849 0.020240024285 -0.008522114968 2.160307617188 -9.647138671875 2.342329101563
966 1540113167.230226516724 0.019174759849 0.020240024285 -0.008522114968 2.165097656250 -9.651928710938 2.342329101563
967 1540113167.231223583221 0.019174759849 0.021305288721 -0.008522114968 2.169887695313 -9.656718750000 2.351909179688
968 1540113167.232228517532 0.019174759849 0.021305288721 -0.009587379924 2.165097656250 -9.656718750000 2.366279296875
969 1540113167.233224391937 0.019174759849 0.021305288721 -0.009587379924 2.160307617188 -9.661508789063 2.375859375000
970 1540113167.234225511551 0.019174759849 0.021305288721 -0.009587379924 2.160307617188 -9.666298828125 2.375859375000
971 1540113167.235226392746 0.019174759849 0.021305288721 -0.008522114968 2.165097656250 -9.666298828125 2.375859375000
972 1540113167.236227512360 0.019174759849 0.022370551076 -0.008522114968 2.160307617188 -9.675878906250 2.375859375000
973 1540113167.237232446671 0.019174759849 0.022370551076 -0.008522114968 2.155517578125 -9.680668945313 2.375859375000
974 1540113167.238229513168 0.019174759849 0.022370551076 -0.008522114968 2.160307617188 -9.675878906250 2.371069335937
975 1540113167.239230394363 0.019174759849 0.022370551076 -0.008522114968 2.165097656250 -9.661508789063 2.375859375000
976 1540113167.240231513977 0.019174759849 0.022370551076 -0.008522114968 2.169887695313 -9.651928710938 2.380649414063
977 1540113167.241232395172 0.019174759849 0.022370551076 -0.008522114968 2.169887695313 -9.647138671875 2.375859375000
978 1540113167.242237567902 0.019174759849 0.022370551076 -0.008522114968 2.165097656250 -9.647138671875 2.371069335937
979 1540113167.243233442307 0.020240024285 0.022370551076 -0.008522114968 2.165097656250 -9.647138671875 2.356699218750
980 1540113167.244236469269 0.019174759849 0.022370551076 -0.008522114968 2.169887695313 -9.642348632813 2.347119140625
981 1540113167.245235443115 0.019174759849 0.022370551076 -0.008522114968 2.184257812500 -9.642348632813 2.342329101563
982 1540113167.246236562729 0.019174759849 0.022370551076 -0.009587379924 2.174677734375 -9.642348632813 2.337539062500
983 1540113167.247241497040 0.019174759849 0.021305288721 -0.009587379924 2.174677734375 -9.637558593750 2.337539062500
984 1540113167.248238563538 0.018109495413 0.021305288721 -0.009587379924 2.179467773438 -9.637558593750 2.347119140625
985 1540113167.249239444733 0.018109495413 0.021305288721 -0.009587379924 2.184257812500 -9.642348632813 2.356699218750
986 1540113167.250239610672 0.018109495413 0.021305288721 -0.009587379924 2.179467773438 -9.647138671875 2.361489257812
987 1540113167.251240491867 0.018109495413 0.021305288721 -0.009587379924 2.184257812500 -9.642348632813 2.356699218750
988 1540113167.252241611481 0.018109495413 0.021305288721 -0.009587379924 2.184257812500 -9.637558593750 2.351909179688
989 1540113167.253247499466 0.019174759849 0.021305288721 -0.009587379924 2.184257812500 -9.637558593750 2.351909179688
990 1540113167.254243612289 0.019174759849 0.020240024285 -0.008522114968 2.193837890625 -9.637558593750 2.361489257812
991 1540113167.255246400833 0.019174759849 0.020240024285 -0.008522114968 2.193837890625 -9.637558593750 2.375859375000
992 1540113167.256245613098 0.019174759849 0.020240024285 -0.008522114968 2.189047851563 -9.642348632813 2.375859375000
993 1540113167.257246494293 0.020240024285 0.020240024285 -0.008522114968 2.184257812500 -9.637558593750 2.361489257812
994 1540113167.258251428604 0.020240024285 0.020240024285 -0.008522114968 2.189047851563 -9.632768554687 2.356699218750
995 1540113167.259247541428 0.019174759849 0.021305288721 -0.009587379924 2.198627929687 -9.632768554687 2.366279296875
996 1540113167.260249614716 0.019174759849 0.021305288721 -0.010652644360 2.203417968750 -9.627978515625 2.356699218750
997 1540113167.261249542236 0.019174759849 0.021305288721 -0.010652644360 2.198627929687 -9.627978515625 2.342329101563
998 1540113167.262250423431 0.019174759849 0.021305288721 -0.010652644360 2.174677734375 -9.637558593750 2.342329101563
999 1540113167.263255596161 0.019174759849 0.021305288721 -0.010652644360 2.165097656250 -9.642348632813 2.347119140625
