# timestamp ang_vel_x ang_vel_y ang_vel_z lin_acc_x lin_acc_y lin_acc_z
0 1540822817.202034711838 -0.059654804257 -0.003195793048 -0.019174759849 0.670605468750 -9.819580078125 1.125659179687
1 1540822817.203035593033 -0.058589539821 -0.003195793048 -0.019174759849 0.661025390625 -9.819580078125 1.111289062500
2 1540822817.204036712646 -0.059654804257 -0.004261057484 -0.019174759849 0.656235351563 -9.814790039063 1.106499023438
3 1540822817.205037593842 -0.061785333129 -0.004261057484 -0.019174759849 0.656235351563 -9.814790039063 1.101708984375
4 1540822817.206038713455 -0.062850597565 -0.004261057484 -0.019174759849 0.656235351563 -9.814790039063 1.082548828125
5 1540822817.207039594650 -0.062850597565 -0.004261057484 -0.019174759849 0.646655273438 -9.814790039063 1.077758789062
6 1540822817.208040714264 -0.061785333129 -0.004261057484 -0.019174759849 0.641865234375 -9.814790039063 1.092128906250
7 1540822817.209041595459 -0.061785333129 -0.003195793048 -0.019174759849 0.651445312500 -9.810000000000 1.096918945313
8 1540822817.210042715073 -0.060720068693 -0.003195793048 -0.019174759849 0.661025390625 -9.790839843750 1.092128906250
9 1540822817.211043596268 -0.060720068693 -0.003195793048 -0.019174759849 0.670605468750 -9.790839843750 1.082548828125
10 1540822817.212044715881 -0.061785333129 -0.003195793048 -0.019174759849 0.670605468750 -9.795629882813 1.092128906250
11 1540822817.213045597076 -0.061785333129 -0.003195793048 -0.019174759849 0.670605468750 -9.805209960937 1.106499023438
12 1540822817.214046716690 -0.060720068693 -0.002130528742 -0.019174759849 0.675395507813 -9.814790039063 1.116079101563
13 1540822817.215047597885 -0.060720068693 -0.002130528742 -0.020240024285 0.684975585938 -9.814790039063 1.125659179687
14 1540822817.216048717499 -0.060720068693 -0.003195793048 -0.020240024285 0.684975585938 -9.814790039063 1.125659179687
15 1540822817.217049598694 -0.060720068693 -0.003195793048 -0.021305288721 0.689765625000 -9.810000000000 1.130449218750
16 1540822817.218051671982 -0.060720068693 -0.004261057484 -0.022370551076 0.684975585938 -9.800419921875 1.135239257813
17 1540822817.219052791595 -0.060720068693 -0.004261057484 -0.022370551076 0.670605468750 -9.795629882813 1.149609375000
18 1540822817.220053672791 -0.061785333129 -0.003195793048 -0.022370551076 0.661025390625 -9.790839843750 1.159189453125
19 1540822817.221054792404 -0.062850597565 -0.003195793048 -0.021305288721 0.661025390625 -9.786049804688 1.154399414063
20 1540822817.222055673599 -0.062850597565 -0.003195793048 -0.021305288721 0.661025390625 -9.786049804688 1.149609375000
21 1540822817.223056793213 -0.062850597565 -0.003195793048 -0.020240024285 0.665815429688 -9.795629882813 1.144819335938
22 1540822817.224057674408 -0.062850597565 -0.003195793048 -0.020240024285 0.670605468750 -9.805209960937 1.135239257813
23 1540822817.225058794022 -0.062850597565 -0.003195793048 -0.020240024285 0.665815429688 -9.810000000000 1.116079101563
24 1540822817.226059675217 -0.062850597565 -0.003195793048 -0.019174759849 0.661025390625 -9.810000000000 1.106499023438
25 1540822817.227060794830 -0.062850597565 -0.004261057484 -0.019174759849 0.656235351563 -9.805209960937 1.106499023438
26 1540822817.228061676025 -0.062850597565 -0.004261057484 -0.019174759849 0.661025390625 -9.805209960937 1.101708984375
27 1540822817.229062795639 -0.061785333129 -0.004261057484 -0.018109495413 0.675395507813 -9.810000000000 1.092128906250
28 1540822817.230063676834 -0.061785333129 -0.004261057484 -0.018109495413 0.680185546875 -9.810000000000 1.092128906250
29 1540822817.231064796448 -0.060720068693 -0.004261057484 -0.017044229936 0.675395507813 -9.814790039063 1.101708984375
30 1540822817.232065677643 -0.060720068693 -0.004261057484 -0.018109495413 0.680185546875 -9.829160156250 1.120869140625
31 1540822817.233066797256 -0.060720068693 -0.004261057484 -0.019174759849 0.689765625000 -9.838740234375 1.140029296875
32 1540822817.234067678452 -0.061785333129 -0.004261057484 -0.019174759849 0.704135742188 -9.829160156250 1.144819335938
33 1540822817.235069751740 -0.060720068693 -0.004261057484 -0.019174759849 0.704135742188 -9.824370117188 1.130449218750
34 1540822817.236070632935 -0.061785333129 -0.004261057484 -0.019174759849 0.704135742188 -9.829160156250 1.111289062500
35 1540822817.237071752548 -0.061785333129 -0.004261057484 -0.018109495413 0.694555664063 -9.833950195313 1.106499023438
36 1540822817.238072633743 -0.061785333129 -0.003195793048 -0.018109495413 0.680185546875 -9.829160156250 1.106499023438
37 1540822817.239073753357 -0.061785333129 -0.003195793048 -0.018109495413 0.665815429688 -9.829160156250 1.111289062500
38 1540822817.240074634552 -0.061785333129 -0.003195793048 -0.018109495413 0.656235351563 -9.819580078125 1.111289062500
39 1540822817.241075754166 -0.061785333129 -0.004261057484 -0.018109495413 0.651445312500 -9.805209960937 1.125659179687
40 1540822817.242076635361 -0.061785333129 -0.004261057484 -0.018109495413 0.651445312500 -9.814790039063 1.130449218750
41 1540822817.243077754974 -0.061785333129 -0.004261057484 -0.018109495413 0.646655273438 -9.824370117188 1.125659179687
42 1540822817.244078636169 -0.061785333129 -0.004261057484 -0.018109495413 0.651445312500 -9.824370117188 1.116079101563
43 1540822817.245079755783 -0.062850597565 -0.004261057484 -0.018109495413 0.656235351563 -9.824370117188 1.116079101563
44 1540822817.246080636978 -0.062850597565 -0.004261057484 -0.018109495413 0.670605468750 -9.824370117188 1.116079101563
45 1540822817.247081756592 -0.062850597565 -0.004261057484 -0.019174759849 0.675395507813 -9.824370117188 1.111289062500
46 1540822817.248082637787 -0.061785333129 -0.003195793048 -0.019174759849 0.670605468750 -9.819580078125 1.101708984375
47 1540822817.249083757401 -0.062850597565 -0.003195793048 -0.020240024285 0.670605468750 -9.824370117188 1.092128906250
48 1540822817.250084638596 -0.062850597565 -0.003195793048 -0.020240024285 0.680185546875 -9.833950195313 1.096918945313
49 1540822817.251085758209 -0.062850597565 -0.003195793048 -0.019174759849 0.694555664063 -9.838740234375 1.106499023438
50 1540822817.252087593079 -0.061785333129 -0.003195793048 -0.019174759849 0.694555664063 -9.833950195313 1.101708984375
51 1540822817.253088712692 -0.060720068693 -0.003195793048 -0.020240024285 0.694555664063 -9.838740234375 1.096918945313
52 1540822817.254089593887 -0.060720068693 -0.004261057484 -0.020240024285 0.704135742188 -9.843530273437 1.096918945313
53 1540822817.255090713501 -0.060720068693 -0.003195793048 -0.020240024285 0.708925781250 -9.833950195313 1.106499023438
54 1540822817.256091594696 -0.061785333129 -0.003195793048 -0.020240024285 0.713715820313 -9.829160156250 1.120869140625
55 1540822817.257092714310 -0.061785333129 -0.004261057484 -0.021305288721 0.713715820313 -9.829160156250 1.125659179687
56 1540822817.258093595505 -0.061785333129 -0.004261057484 -0.021305288721 0.699345703125 -9.829160156250 1.111289062500
57 1540822817.259094715118 -0.061785333129 -0.004261057484 -0.021305288721 0.684975585938 -9.819580078125 1.116079101563
58 1540822817.260095596313 -0.061785333129 -0.004261057484 -0.022370551076 0.670605468750 -9.814790039063 1.120869140625
59 1540822817.261096715927 -0.061785333129 -0.003195793048 -0.022370551076 0.670605468750 -9.814790039063 1.125659179687
60 1540822817.262097597122 -0.061785333129 -0.003195793048 -0.022370551076 0.670605468750 -9.814790039063 1.140029296875
61 1540822817.263098716736 -0.062850597565 -0.003195793048 -0.021305288721 0.665815429688 -9.810000000000 1.144819335938
62 1540822817.264099597931 -0.061785333129 -0.003195793048 -0.021305288721 0.661025390625 -9.800419921875 1.144819335938
63 1540822817.265100717545 -0.061785333129 -0.004261057484 -0.020240024285 0.661025390625 -9.805209960937 1.140029296875
64 1540822817.266101598740 -0.061785333129 -0.004261057484 -0.020240024285 0.656235351563 -9.819580078125 1.140029296875
65 1540822817.267102718353 -0.061785333129 -0.004261057484 -0.020240024285 0.651445312500 -9.824370117188 1.135239257813
66 1540822817.268103599548 -0.062850597565 -0.004261057484 -0.020240024285 0.665815429688 -9.819580078125 1.125659179687
67 1540822817.269104719162 -0.063915862001 -0.004261057484 -0.021305288721 0.680185546875 -9.810000000000 1.120869140625
68 1540822817.270106792450 -0.063915862001 -0.004261057484 -0.020240024285 0.684975585938 -9.810000000000 1.106499023438
69 1540822817.271106719971 -0.063915862001 -0.004261057484 -0.020240024285 0.684975585938 -9.810000000000 1.096918945313
70 1540822817.272107601166 -0.062850597565 -0.003195793048 -0.020240024285 0.680185546875 -9.814790039063 1.092128906250
71 1540822817.273108720779 -0.062850597565 -0.003195793048 -0.020240024285 0.680185546875 -9.810000000000 1.101708984375
72 1540822817.274109601974 -0.061785333129 -0.003195793048 -0.020240024285 0.680185546875 -9.805209960937 1.116079101563
73 1540822817.275110721588 -0.061785333129 -0.003195793048 -0.019174759849 0.680185546875 -9.810000000000 1.116079101563
74 1540822817.276111602783 -0.061785333129 -0.003195793048 -0.019174759849 0.675395507813 -9.814790039063 1.101708984375
75 1540822817.277112722397 -0.060720068693 -0.002130528742 -0.019174759849 0.675395507813 -9.814790039063 1.101708984375
76 1540822817.278113603592 -0.060720068693 -0.002130528742 -0.020240024285 0.680185546875 -9.810000000000 1.111289062500
77 1540822817.279114723206 -0.061785333129 -0.002130528742 -0.020240024285 0.684975585938 -9.805209960937 1.116079101563
78 1540822817.280115604401 -0.061785333129 -0.003195793048 -0.020240024285 0.680185546875 -9.800419921875 1.111289062500
79 1540822817.281116724014 -0.060720068693 -0.004261057484 -0.020240024285 0.675395507813 -9.800419921875 1.101708984375
80 1540822817.282117605209 -0.061785333129 -0.003195793048 -0.020240024285 0.670605468750 -9.795629882813 1.096918945313
81 1540822817.283119678497 -0.062850597565 -0.003195793048 -0.019174759849 0.665815429688 -9.800419921875 1.106499023438
82 1540822817.284120798111 -0.062850597565 -0.003195793048 -0.019174759849 0.661025390625 -9.800419921875 1.106499023438
83 1540822817.285121679306 -0.062850597565 -0.003195793048 -0.019174759849 0.651445312500 -9.805209960937 1.111289062500
84 1540822817.286122798920 -0.062850597565 -0.003195793048 -0.019174759849 0.646655273438 -9.814790039063 1.116079101563
85 1540822817.287123680115 -0.061785333129 -0.003195793048 -0.018109495413 0.641865234375 -9.824370117188 1.106499023438
86 1540822817.288124799728 -0.061785333129 -0.002130528742 -0.018109495413 0.661025390625 -9.824370117188 1.096918945313
87 1540822817.289125680923 -0.061785333129 -0.002130528742 -0.019174759849 0.675395507813 -9.819580078125 1.096918945313
88 1540822817.290126800537 -0.061785333129 -0.002130528742 -0.019174759849 0.680185546875 -9.829160156250 1.092128906250
89 1540822817.291127681732 -0.060720068693 -0.002130528742 -0.020240024285 0.684975585938 -9.833950195313 1.092128906250
90 1540822817.292128801346 -0.061785333129 -0.002130528742 -0.020240024285 0.699345703125 -9.829160156250 1.101708984375
91 1540822817.293129682541 -0.061785333129 -0.002130528742 -0.020240024285 0.708925781250 -9.829160156250 1.106499023438
92 1540822817.294130802155 -0.060720068693 -0.002130528742 -0.020240024285 0.708925781250 -9.829160156250 1.116079101563
93 1540822817.295131683350 -0.060720068693 -0.002130528742 -0.020240024285 0.713715820313 -9.819580078125 1.116079101563
94 1540822817.296132802963 -0.060720068693 -0.002130528742 -0.021305288721 0.704135742188 -9.824370117188 1.116079101563
95 1540822817.297133684158 -0.059654804257 -0.002130528742 -0.022370551076 0.694555664063 -9.833950195313 1.116079101563
96 1540822817.298134803772 -0.058589539821 -0.003195793048 -0.022370551076 0.684975585938 -9.848320312500 1.116079101563
97 1540822817.299135684967 -0.059654804257 -0.003195793048 -0.022370551076 0.675395507813 -9.843530273437 1.111289062500
98 1540822817.300137758255 -0.059654804257 -0.004261057484 -0.022370551076 0.670605468750 -9.833950195313 1.101708984375
99 1540822817.301138639450 -0.060720068693 -0.004261057484 -0.022370551076 0.665815429688 -9.833950195313 1.101708984375
100 1540822817.302139759064 -0.061785333129 -0.004261057484 -0.021305288721 0.661025390625 -9.833950195313 1.111289062500
101 1540822817.303140640259 -0.061785333129 -0.004261057484 -0.020240024285 0.651445312500 -9.838740234375 1.116079101563
102 1540822817.304141759872 -0.062850597565 -0.004261057484 -0.020240024285 0.651445312500 -9.843530273437 1.111289062500
103 1540822817.305142641068 -0.062850597565 -0.004261057484 -0.019174759849 0.656235351563 -9.843530273437 1.096918945313
104 1540822817.306143760681 -0.062850597565 -0.004261057484 -0.020240024285 0.661025390625 -9.833950195313 1.096918945313
105 1540822817.307144641876 -0.062850597565 -0.004261057484 -0.020240024285 0.661025390625 -9.829160156250 1.111289062500
106 1540822817.308145761490 -0.061785333129 -0.003195793048 -0.020240024285 0.670605468750 -9.829160156250 1.116079101563
107 1540822817.309146642685 -0.061785333129 -0.004261057484 -0.020240024285 0.684975585938 -9.829160156250 1.125659179687
108 1540822817.310147762299 -0.061785333129 -0.003195793048 -0.020240024285 0.684975585938 -9.824370117188 1.130449218750
109 1540822817.311148643494 -0.061785333129 -0.003195793048 -0.020240024285 0.689765625000 -9.824370117188 1.130449218750
110 1540822817.312149763107 -0.061785333129 -0.003195793048 -0.019174759849 0.699345703125 -9.833950195313 1.125659179687
111 1540822817.313150644302 -0.061785333129 -0.003195793048 -0.018109495413 0.704135742188 -9.843530273437 1.135239257813
112 1540822817.314151763916 -0.061785333129 -0.003195793048 -0.019174759849 0.708925781250 -9.848320312500 1.130449218750
113 1540822817.315152645111 -0.061785333129 -0.003195793048 -0.019174759849 0.708925781250 -9.843530273437 1.120869140625
114 1540822817.316153764725 -0.060720068693 -0.003195793048 -0.019174759849 0.713715820313 -9.838740234375 1.116079101563
115 1540822817.317155599594 -0.060720068693 -0.003195793048 -0.019174759849 0.704135742188 -9.838740234375 1.125659179687
116 1540822817.318156719208 -0.061785333129 -0.003195793048 -0.019174759849 0.684975585938 -9.833950195313 1.135239257813
117 1540822817.319157600403 -0.061785333129 -0.003195793048 -0.019174759849 0.665815429688 -9.824370117188 1.130449218750
118 1540822817.320158720016 -0.060720068693 -0.003195793048 -0.019174759849 0.646655273438 -9.819580078125 1.130449218750
119 1540822817.321159601212 -0.061785333129 -0.003195793048 -0.020240024285 0.627495117188 -9.819580078125 1.120869140625
120 1540822817.322160720825 -0.061785333129 -0.003195793048 -0.020240024285 0.617915039063 -9.819580078125 1.106499023438
121 1540822817.323161602020 -0.062850597565 -0.003195793048 -0.019174759849 0.627495117188 -9.824370117188 1.111289062500
122 1540822817.324162721634 -0.063915862001 -0.003195793048 -0.019174759849 0.651445312500 -9.819580078125 1.116079101563
123 1540822817.325163602829 -0.063915862001 -0.003195793048 -0.019174759849 0.665815429688 -9.819580078125 1.106499023438
124 1540822817.326164722443 -0.063915862001 -0.003195793048 -0.019174759849 0.680185546875 -9.819580078125 1.101708984375
125 1540822817.327165603638 -0.063915862001 -0.003195793048 -0.019174759849 0.694555664063 -9.814790039063 1.101708984375
126 1540822817.328166723251 -0.062850597565 -0.003195793048 -0.019174759849 0.704135742188 -9.810000000000 1.101708984375
127 1540822817.329167604446 -0.061785333129 -0.002130528742 -0.020240024285 0.708925781250 -9.800419921875 1.101708984375
128 1540822817.330168724060 -0.060720068693 -0.002130528742 -0.020240024285 0.718505859375 -9.795629882813 1.096918945313
129 1540822817.331169605255 -0.061785333129 -0.002130528742 -0.020240024285 0.718505859375 -9.786049804688 1.096918945313
130 1540822817.332170724869 -0.061785333129 -0.002130528742 -0.020240024285 0.708925781250 -9.781259765625 1.106499023438
131 1540822817.333171606064 -0.060720068693 -0.002130528742 -0.020240024285 0.699345703125 -9.786049804688 1.101708984375
132 1540822817.334172725677 -0.060720068693 -0.003195793048 -0.020240024285 0.694555664063 -9.795629882813 1.092128906250
133 1540822817.335174798965 -0.061785333129 -0.003195793048 -0.019174759849 0.684975585938 -9.810000000000 1.092128906250
134 1540822817.336175680161 -0.061785333129 -0.003195793048 -0.020240024285 0.675395507813 -9.814790039063 1.106499023438
135 1540822817.337176799774 -0.062850597565 -0.003195793048 -0.020240024285 0.661025390625 -9.824370117188 1.116079101563
136 1540822817.338177680969 -0.063915862001 -0.003195793048 -0.021305288721 0.651445312500 -9.829160156250 1.120869140625
137 1540822817.339178800583 -0.064981126437 -0.003195793048 -0.021305288721 0.651445312500 -9.838740234375 1.130449218750
138 1540822817.340179681778 -0.064981126437 -0.004261057484 -0.021305288721 0.651445312500 -9.843530273437 1.140029296875
139 1540822817.341180801392 -0.066046390873 -0.003195793048 -0.021305288721 0.646655273438 -9.843530273437 1.135239257813
140 1540822817.342181682587 -0.066046390873 -0.003195793048 -0.021305288721 0.646655273438 -9.848320312500 1.130449218750
141 1540822817.343182802200 -0.064981126437 -0.003195793048 -0.021305288721 0.651445312500 -9.853110351563 1.120869140625
142 1540822817.344183683395 -0.063915862001 -0.003195793048 -0.021305288721 0.656235351563 -9.843530273437 1.120869140625
143 1540822817.345184803009 -0.063915862001 -0.003195793048 -0.020240024285 0.661025390625 -9.833950195313 1.120869140625
144 1540822817.346185684204 -0.062850597565 -0.003195793048 -0.020240024285 0.665815429688 -9.833950195313 1.120869140625
145 1540822817.347186803818 -0.061785333129 -0.003195793048 -0.020240024285 0.661025390625 -9.833950195313 1.120869140625
146 1540822817.348187685013 -0.061785333129 -0.002130528742 -0.021305288721 0.665815429688 -9.833950195313 1.120869140625
147 1540822817.349188804626 -0.061785333129 -0.002130528742 -0.021305288721 0.675395507813 -9.843530273437 1.120869140625
148 1540822817.350189685822 -0.060720068693 -0.002130528742 -0.021305288721 0.684975585938 -9.857900390625 1.116079101563
149 1540822817.351190805435 -0.059654804257 -0.002130528742 -0.021305288721 0.694555664063 -9.862690429688 1.111289062500
150 1540822817.352192640305 -0.059654804257 -0.003195793048 -0.021305288721 0.694555664063 -9.848320312500 1.120869140625
151 1540822817.353193759918 -0.059654804257 -0.003195793048 -0.020240024285 0.694555664063 -9.833950195313 1.130449218750
152 1540822817.354194641113 -0.059654804257 -0.003195793048 -0.020240024285 0.694555664063 -9.829160156250 1.130449218750
153 1540822817.355195760727 -0.060720068693 -0.003195793048 -0.020240024285 0.684975585938 -9.819580078125 1.125659179687
154 1540822817.356196641922 -0.060720068693 -0.002130528742 -0.020240024285 0.675395507813 -9.805209960937 1.120869140625
155 1540822817.357197761536 -0.060720068693 -0.002130528742 -0.020240024285 0.670605468750 -9.800419921875 1.116079101563
156 1540822817.358198642731 -0.060720068693 -0.002130528742 -0.019174759849 0.670605468750 -9.795629882813 1.111289062500
157 1540822817.359199762344 -0.060720068693 -0.002130528742 -0.018109495413 0.661025390625 -9.805209960937 1.106499023438
158 1540822817.360200643539 -0.061785333129 -0.002130528742 -0.017044229936 0.656235351563 -9.805209960937 1.101708984375
159 1540822817.361201763153 -0.062850597565 -0.003195793048 -0.015978965500 0.656235351563 -9.795629882813 1.092128906250
160 1540822817.362202644348 -0.062850597565 -0.003195793048 -0.015978965500 0.661025390625 -9.790839843750 1.082548828125
161 1540822817.363203763962 -0.062850597565 -0.003195793048 -0.015978965500 0.665815429688 -9.790839843750 1.087338867187
162 1540822817.364204645157 -0.062850597565 -0.003195793048 -0.015978965500 0.665815429688 -9.786049804688 1.096918945313
163 1540822817.365205764771 -0.062850597565 -0.004261057484 -0.015978965500 0.675395507813 -9.790839843750 1.096918945313
164 1540822817.366206645966 -0.062850597565 -0.004261057484 -0.015978965500 0.684975585938 -9.795629882813 1.087338867187
165 1540822817.367207765579 -0.062850597565 -0.004261057484 -0.017044229936 0.675395507813 -9.805209960937 1.077758789062
166 1540822817.368208646774 -0.062850597565 -0.004261057484 -0.018109495413 0.675395507813 -9.814790039063 1.077758789062
167 1540822817.369209766388 -0.062850597565 -0.004261057484 -0.018109495413 0.684975585938 -9.819580078125 1.082548828125
168 1540822817.370210647583 -0.061785333129 -0.004261057484 -0.019174759849 0.689765625000 -9.829160156250 1.077758789062
169 1540822817.371211767197 -0.062850597565 -0.003195793048 -0.019174759849 0.704135742188 -9.833950195313 1.068178710938
170 1540822817.372212648392 -0.061785333129 -0.003195793048 -0.020240024285 0.704135742188 -9.838740234375 1.077758789062
171 1540822817.373213768005 -0.061785333129 -0.004261057484 -0.020240024285 0.699345703125 -9.838740234375 1.082548828125
172 1540822817.374214649200 -0.060720068693 -0.004261057484 -0.020240024285 0.699345703125 -9.833950195313 1.087338867187
173 1540822817.375215768814 -0.060720068693 -0.003195793048 -0.021305288721 0.699345703125 -9.833950195313 1.096918945313
174 1540822817.376216650009 -0.059654804257 -0.003195793048 -0.022370551076 0.684975585938 -9.838740234375 1.106499023438
175 1540822817.377217769623 -0.059654804257 -0.002130528742 -0.022370551076 0.680185546875 -9.853110351563 1.106499023438
176 1540822817.378218650818 -0.059654804257 -0.002130528742 -0.022370551076 0.670605468750 -9.857900390625 1.106499023438
177 1540822817.379219770432 -0.059654804257 -0.003195793048 -0.021305288721 0.665815429688 -9.853110351563 1.106499023438
178 1540822817.380220651627 -0.060720068693 -0.003195793048 -0.022370551076 0.661025390625 -9.843530273437 1.116079101563
179 1540822817.381221771240 -0.060720068693 -0.002130528742 -0.022370551076 0.651445312500 -9.833950195313 1.116079101563
180 1540822817.382222652435 -0.061785333129 -0.002130528742 -0.023435815512 0.646655273438 -9.824370117188 1.116079101563
181 1540822817.383224725723 -0.061785333129 -0.003195793048 -0.022370551076 0.656235351563 -9.819580078125 1.130449218750
182 1540822817.384225606918 -0.062850597565 -0.004261057484 -0.022370551076 0.665815429688 -9.814790039063 1.135239257813
183 1540822817.385226726532 -0.062850597565 -0.004261057484 -0.021305288721 0.675395507813 -9.805209960937 1.120869140625
184 1540822817.386227607727 -0.062850597565 -0.004261057484 -0.021305288721 0.680185546875 -9.805209960937 1.111289062500
185 1540822817.387228727341 -0.062850597565 -0.004261057484 -0.021305288721 0.680185546875 -9.810000000000 1.101708984375
186 1540822817.388229608536 -0.062850597565 -0.004261057484 -0.020240024285 0.684975585938 -9.814790039063 1.096918945313
187 1540822817.389230728149 -0.061785333129 -0.003195793048 -0.020240024285 0.684975585938 -9.824370117188 1.077758789062
188 1540822817.390231609344 -0.061785333129 -0.003195793048 -0.019174759849 0.684975585938 -9.833950195313 1.077758789062
189 1540822817.391232728958 -0.061785333129 -0.003195793048 -0.019174759849 0.689765625000 -9.838740234375 1.092128906250
190 1540822817.392233610153 -0.061785333129 -0.003195793048 -0.019174759849 0.699345703125 -9.848320312500 1.101708984375
191 1540822817.393234729767 -0.060720068693 -0.003195793048 -0.019174759849 0.694555664063 -9.857900390625 1.111289062500
192 1540822817.394235610962 -0.061785333129 -0.003195793048 -0.019174759849 0.689765625000 -9.853110351563 1.116079101563
193 1540822817.395236730576 -0.061785333129 -0.003195793048 -0.018109495413 0.689765625000 -9.843530273437 1.125659179687
194 1540822817.396237611771 -0.060720068693 -0.004261057484 -0.018109495413 0.680185546875 -9.838740234375 1.130449218750
195 1540822817.397238731384 -0.060720068693 -0.004261057484 -0.018109495413 0.661025390625 -9.838740234375 1.130449218750
196 1540822817.398239612579 -0.060720068693 -0.004261057484 -0.018109495413 0.656235351563 -9.838740234375 1.140029296875
197 1540822817.399240732193 -0.060720068693 -0.004261057484 -0.017044229936 0.665815429688 -9.829160156250 1.140029296875
198 1540822817.400242805481 -0.060720068693 -0.004261057484 -0.017044229936 0.661025390625 -9.814790039063 1.144819335938
199 1540822817.401243686676 -0.060720068693 -0.004261057484 -0.017044229936 0.651445312500 -9.810000000000 1.135239257813
200 1540822817.402244806290 -0.059654804257 -0.005326322180 -0.017044229936 0.651445312500 -9.819580078125 1.111289062500
201 1540822817.403245687485 -0.059654804257 -0.005326322180 -0.015978965500 0.651445312500 -9.829160156250 1.101708984375
202 1540822817.404246807098 -0.060720068693 -0.005326322180 -0.015978965500 0.656235351563 -9.833950195313 1.096918945313
203 1540822817.405247688293 -0.060720068693 -0.005326322180 -0.015978965500 0.661025390625 -9.838740234375 1.092128906250
204 1540822817.406248807907 -0.061785333129 -0.004261057484 -0.017044229936 0.665815429688 -9.843530273437 1.092128906250
205 1540822817.407249689102 -0.061785333129 -0.003195793048 -0.018109495413 0.675395507813 -9.843530273437 1.096918945313
206 1540822817.408250808716 -0.061785333129 -0.003195793048 -0.018109495413 0.680185546875 -9.838740234375 1.096918945313
207 1540822817.409251689911 -0.061785333129 -0.004261057484 -0.019174759849 0.689765625000 -9.833950195313 1.092128906250
208 1540822817.410252809525 -0.061785333129 -0.004261057484 -0.020240024285 0.699345703125 -9.833950195313 1.096918945313
209 1540822817.411253690720 -0.061785333129 -0.003195793048 -0.020240024285 0.704135742188 -9.833950195313 1.096918945313
210 1540822817.412254810333 -0.062850597565 -0.003195793048 -0.021305288721 0.708925781250 -9.829160156250 1.096918945313
211 1540822817.413255691528 -0.062850597565 -0.003195793048 -0.022370551076 0.704135742188 -9.843530273437 1.092128906250
212 1540822817.414256811142 -0.062850597565 -0.002130528742 -0.022370551076 0.694555664063 -9.848320312500 1.106499023438
213 1540822817.415257692337 -0.062850597565 -0.002130528742 -0.022370551076 0.684975585938 -9.838740234375 1.125659179687
214 1540822817.416258573532 -0.062850597565 -0.003195793048 -0.023435815512 0.670605468750 -9.824370117188 1.120869140625
215 1540822817.417259693146 -0.062850597565 -0.003195793048 -0.023435815512 0.656235351563 -9.824370117188 1.116079101563
216 1540822817.418261766434 -0.062850597565 -0.003195793048 -0.023435815512 0.656235351563 -9.819580078125 1.106499023438
217 1540822817.419262647629 -0.062850597565 -0.003195793048 -0.023435815512 0.656235351563 -9.814790039063 1.101708984375
218 1540822817.420263767242 -0.061785333129 -0.003195793048 -0.023435815512 0.656235351563 -9.819580078125 1.106499023438
219 1540822817.421264648438 -0.061785333129 -0.003195793048 -0.023435815512 0.661025390625 -9.819580078125 1.116079101563
220 1540822817.422265768051 -0.061785333129 -0.004261057484 -0.023435815512 0.665815429688 -9.819580078125 1.116079101563
221 1540822817.423266649246 -0.062850597565 -0.004261057484 -0.022370551076 0.675395507813 -9.814790039063 1.111289062500
222 1540822817.424267768860 -0.062850597565 -0.004261057484 -0.022370551076 0.670605468750 -9.819580078125 1.111289062500
223 1540822817.425268650055 -0.062850597565 -0.004261057484 -0.021305288721 0.665815429688 -9.824370117188 1.106499023438
224 1540822817.426269769669 -0.061785333129 -0.004261057484 -0.020240024285 0.675395507813 -9.819580078125 1.092128906250
225 1540822817.427270650864 -0.061785333129 -0.003195793048 -0.019174759849 0.680185546875 -9.819580078125 1.077758789062
226 1540822817.428271770477 -0.061785333129 -0.003195793048 -0.018109495413 0.680185546875 -9.819580078125 1.077758789062
227 1540822817.429272651672 -0.060720068693 -0.003195793048 -0.018109495413 0.684975585938 -9.814790039063 1.087338867187
228 1540822817.430273771286 -0.060720068693 -0.003195793048 -0.018109495413 0.689765625000 -9.819580078125 1.087338867187
229 1540822817.431274652481 -0.059654804257 -0.003195793048 -0.017044229936 0.680185546875 -9.829160156250 1.092128906250
230 1540822817.432275772095 -0.059654804257 -0.003195793048 -0.018109495413 0.675395507813 -9.829160156250 1.096918945313
231 1540822817.433276653290 -0.060720068693 -0.002130528742 -0.018109495413 0.675395507813 -9.829160156250 1.101708984375
232 1540822817.434277772903 -0.060720068693 -0.002130528742 -0.018109495413 0.670605468750 -9.829160156250 1.111289062500
233 1540822817.435279607773 -0.061785333129 -0.002130528742 -0.017044229936 0.661025390625 -9.833950195313 1.111289062500
234 1540822817.436280727386 -0.061785333129 -0.003195793048 -0.017044229936 0.651445312500 -9.843530273437 1.111289062500
235 1540822817.437281608582 -0.061785333129 -0.002130528742 -0.017044229936 0.637075195313 -9.848320312500 1.116079101563
236 1540822817.438282728195 -0.061785333129 -0.002130528742 -0.017044229936 0.622705078125 -9.838740234375 1.120869140625
237 1540822817.439283609390 -0.062850597565 -0.003195793048 -0.015978965500 0.622705078125 -9.833950195313 1.120869140625
238 1540822817.440284729004 -0.062850597565 -0.003195793048 -0.015978965500 0.622705078125 -9.829160156250 1.116079101563
239 1540822817.441285610199 -0.062850597565 -0.003195793048 -0.015978965500 0.627495117188 -9.829160156250 1.106499023438
240 1540822817.442286729813 -0.062850597565 -0.003195793048 -0.015978965500 0.632285156250 -9.829160156250 1.092128906250
241 1540822817.443287611008 -0.062850597565 -0.004261057484 -0.015978965500 0.637075195313 -9.829160156250 1.087338867187
242 1540822817.444288730621 -0.062850597565 -0.004261057484 -0.017044229936 0.641865234375 -9.833950195313 1.087338867187
243 1540822817.445289611816 -0.062850597565 -0.004261057484 -0.017044229936 0.651445312500 -9.838740234375 1.087338867187
244 1540822817.446290731430 -0.062850597565 -0.003195793048 -0.018109495413 0.661025390625 -9.833950195313 1.092128906250
245 1540822817.447291612625 -0.061785333129 -0.003195793048 -0.019174759849 0.665815429688 -9.833950195313 1.096918945313
246 1540822817.448292732239 -0.061785333129 -0.002130528742 -0.020240024285 0.661025390625 -9.833950195313 1.096918945313
247 1540822817.449293613434 -0.060720068693 -0.002130528742 -0.020240024285 0.661025390625 -9.824370117188 1.092128906250
248 1540822817.450294733047 -0.059654804257 -0.002130528742 -0.021305288721 0.670605468750 -9.829160156250 1.092128906250
249 1540822817.451295614243 -0.059654804257 -0.002130528742 -0.021305288721 0.675395507813 -9.833950195313 1.106499023438
250 1540822817.452297687531 -0.059654804257 -0.003195793048 -0.022370551076 0.684975585938 -9.833950195313 1.125659179687
251 1540822817.453298807144 -0.060720068693 -0.003195793048 -0.022370551076 0.689765625000 -9.838740234375 1.135239257813
252 1540822817.454299688339 -0.061785333129 -0.003195793048 -0.022370551076 0.684975585938 -9.833950195313 1.140029296875
253 1540822817.455300807953 -0.061785333129 -0.003195793048 -0.022370551076 0.684975585938 -9.824370117188 1.140029296875
254 1540822817.456301689148 -0.060720068693 -0.003195793048 -0.022370551076 0.684975585938 -9.814790039063 1.135239257813
255 1540822817.457302808762 -0.061785333129 -0.003195793048 -0.023435815512 0.684975585938 -9.800419921875 1.135239257813
256 1540822817.458303689957 -0.061785333129 -0.003195793048 -0.023435815512 0.670605468750 -9.800419921875 1.140029296875
257 1540822817.459304809570 -0.061785333129 -0.003195793048 -0.023435815512 0.665815429688 -9.800419921875 1.125659179687
258 1540822817.460305690765 -0.061785333129 -0.004261057484 -0.023435815512 0.670605468750 -9.800419921875 1.116079101563
259 1540822817.461306810379 -0.061785333129 -0.004261057484 -0.023435815512 0.680185546875 -9.805209960937 1.106499023438
260 1540822817.462306737900 -0.062850597565 -0.004261057484 -0.022370551076 0.689765625000 -9.814790039063 1.087338867187
261 1540822817.463307619095 -0.063915862001 -0.004261057484 -0.021305288721 0.699345703125 -9.814790039063 1.063388671875
262 1540822817.464308738708 -0.063915862001 -0.003195793048 -0.021305288721 0.708925781250 -9.814790039063 1.063388671875
263 1540822817.465310573578 -0.063915862001 -0.003195793048 -0.021305288721 0.704135742188 -9.814790039063 1.082548828125
264 1540822817.466311693192 -0.063915862001 -0.003195793048 -0.020240024285 0.699345703125 -9.819580078125 1.096918945313
265 1540822817.467312574387 -0.063915862001 -0.003195793048 -0.020240024285 0.694555664063 -9.829160156250 1.101708984375
266 1540822817.468313694000 -0.062850597565 -0.003195793048 -0.020240024285 0.699345703125 -9.838740234375 1.111289062500
267 1540822817.469314575195 -0.062850597565 -0.003195793048 -0.019174759849 0.713715820313 -9.843530273437 1.120869140625
268 1540822817.470315694809 -0.062850597565 -0.003195793048 -0.019174759849 0.718505859375 -9.843530273437 1.116079101563
269 1540822817.471316576004 -0.061785333129 -0.002130528742 -0.019174759849 0.708925781250 -9.843530273437 1.120869140625
270 1540822817.472317695618 -0.061785333129 -0.002130528742 -0.020240024285 0.684975585938 -9.843530273437 1.140029296875
271 1540822817.473318576813 -0.060720068693 -0.002130528742 -0.020240024285 0.670605468750 -9.838740234375 1.144819335938
272 1540822817.474319696426 -0.060720068693 -0.003195793048 -0.019174759849 0.670605468750 -9.843530273437 1.140029296875
273 1540822817.475320577621 -0.060720068693 -0.003195793048 -0.019174759849 0.665815429688 -9.843530273437 1.149609375000
274 1540822817.476321697235 -0.060720068693 -0.004261057484 -0.018109495413 0.665815429688 -9.838740234375 1.163979492187
275 1540822817.477322578430 -0.061785333129 -0.004261057484 -0.018109495413 0.665815429688 -9.838740234375 1.163979492187
276 1540822817.478323698044 -0.061785333129 -0.004261057484 -0.017044229936 0.661025390625 -9.833950195313 1.159189453125
277 1540822817.479324579239 -0.061785333129 -0.003195793048 -0.017044229936 0.651445312500 -9.829160156250 1.149609375000
278 1540822817.480325698853 -0.061785333129 -0.003195793048 -0.017044229936 0.637075195313 -9.829160156250 1.140029296875
279 1540822817.481326580048 -0.061785333129 -0.003195793048 -0.017044229936 0.637075195313 -9.824370117188 1.125659179687
280 1540822817.482327699661 -0.061785333129 -0.004261057484 -0.017044229936 0.646655273438 -9.824370117188 1.111289062500
281 1540822817.483329772949 -0.061785333129 -0.004261057484 -0.017044229936 0.651445312500 -9.819580078125 1.101708984375
282 1540822817.484330654144 -0.061785333129 -0.003195793048 -0.017044229936 0.651445312500 -9.814790039063 1.096918945313
283 1540822817.485331773758 -0.061785333129 -0.004261057484 -0.018109495413 0.656235351563 -9.814790039063 1.106499023438
284 1540822817.486332654953 -0.061785333129 -0.004261057484 -0.018109495413 0.665815429688 -9.819580078125 1.116079101563
285 1540822817.487333774567 -0.060720068693 -0.005326322180 -0.019174759849 0.675395507813 -9.829160156250 1.111289062500
286 1540822817.488334655762 -0.060720068693 -0.004261057484 -0.020240024285 0.684975585938 -9.838740234375 1.111289062500
287 1540822817.489335775375 -0.060720068693 -0.004261057484 -0.021305288721 0.689765625000 -9.838740234375 1.111289062500
288 1540822817.490336656570 -0.060720068693 -0.004261057484 -0.021305288721 0.689765625000 -9.833950195313 1.101708984375
289 1540822817.491337776184 -0.060720068693 -0.003195793048 -0.022370551076 0.684975585938 -9.829160156250 1.106499023438
290 1540822817.492338657379 -0.059654804257 -0.002130528742 -0.022370551076 0.680185546875 -9.824370117188 1.120869140625
291 1540822817.493339776993 -0.060720068693 -0.002130528742 -0.023435815512 0.675395507813 -9.824370117188 1.130449218750
292 1540822817.494340658188 -0.060720068693 -0.003195793048 -0.023435815512 0.675395507813 -9.833950195313 1.140029296875
293 1540822817.495341777802 -0.061785333129 -0.004261057484 -0.023435815512 0.684975585938 -9.833950195313 1.140029296875
294 1540822817.496342658997 -0.061785333129 -0.004261057484 -0.024501079948 0.680185546875 -9.819580078125 1.135239257813
295 1540822817.497343778610 -0.061785333129 -0.004261057484 -0.024501079948 0.670605468750 -9.800419921875 1.120869140625
296 1540822817.498344659805 -0.061785333129 -0.004261057484 -0.023435815512 0.665815429688 -9.786049804688 1.111289062500
297 1540822817.499345779419 -0.060720068693 -0.004261057484 -0.023435815512 0.675395507813 -9.795629882813 1.111289062500
298 1540822817.500347614288 -0.060720068693 -0.004261057484 -0.022370551076 0.680185546875 -9.810000000000 1.120869140625
299 1540822817.501348733902 -0.060720068693 -0.004261057484 -0.022370551076 0.680185546875 -9.819580078125 1.125659179687
300 1540822817.502349615097 -0.060720068693 -0.004261057484 -0.022370551076 0.670605468750 -9.824370117188 1.116079101563
301 1540822817.503350734711 -0.061785333129 -0.005326322180 -0.021305288721 0.670605468750 -9.824370117188 1.101708984375
302 1540822817.504351615906 -0.060720068693 -0.004261057484 -0.021305288721 0.665815429688 -9.824370117188 1.096918945313
303 1540822817.505352735519 -0.060720068693 -0.004261057484 -0.021305288721 0.661025390625 -9.819580078125 1.101708984375
304 1540822817.506353616714 -0.060720068693 -0.003195793048 -0.021305288721 0.656235351563 -9.824370117188 1.106499023438
305 1540822817.507354736328 -0.060720068693 -0.003195793048 -0.020240024285 0.656235351563 -9.829160156250 1.101708984375
306 1540822817.508355617523 -0.060720068693 -0.004261057484 -0.020240024285 0.656235351563 -9.838740234375 1.101708984375
307 1540822817.509356737137 -0.060720068693 -0.004261057484 -0.019174759849 0.656235351563 -9.833950195313 1.096918945313
308 1540822817.510357618332 -0.060720068693 -0.004261057484 -0.019174759849 0.651445312500 -9.824370117188 1.087338867187
309 1540822817.511358737946 -0.061785333129 -0.004261057484 -0.018109495413 0.646655273438 -9.819580078125 1.087338867187
310 1540822817.512359619141 -0.061785333129 -0.004261057484 -0.017044229936 0.651445312500 -9.824370117188 1.082548828125
311 1540822817.513360738754 -0.061785333129 -0.004261057484 -0.018109495413 0.651445312500 -9.829160156250 1.072968750000
312 1540822817.514361619949 -0.061785333129 -0.004261057484 -0.018109495413 0.646655273438 -9.829160156250 1.072968750000
313 1540822817.515362739563 -0.061785333129 -0.004261057484 -0.018109495413 0.646655273438 -9.829160156250 1.072968750000
314 1540822817.516363620758 -0.061785333129 -0.004261057484 -0.018109495413 0.641865234375 -9.829160156250 1.077758789062
315 1540822817.517364740372 -0.062850597565 -0.004261057484 -0.017044229936 0.637075195313 -9.824370117188 1.077758789062
316 1540822817.518366575241 -0.062850597565 -0.003195793048 -0.017044229936 0.627495117188 -9.824370117188 1.087338867187
317 1540822817.519367694855 -0.062850597565 -0.003195793048 -0.015978965500 0.627495117188 -9.833950195313 1.101708984375
318 1540822817.520368576050 -0.062850597565 -0.003195793048 -0.015978965500 0.627495117188 -9.843530273437 1.106499023438
319 1540822817.521369695663 -0.061785333129 -0.003195793048 -0.015978965500 0.632285156250 -9.848320312500 1.101708984375
320 1540822817.522370576859 -0.061785333129 -0.004261057484 -0.015978965500 0.641865234375 -9.843530273437 1.101708984375
321 1540822817.523371696472 -0.060720068693 -0.004261057484 -0.017044229936 0.656235351563 -9.838740234375 1.111289062500
322 1540822817.524372577667 -0.060720068693 -0.004261057484 -0.017044229936 0.670605468750 -9.833950195313 1.120869140625
323 1540822817.525373697281 -0.060720068693 -0.004261057484 -0.018109495413 0.675395507813 -9.833950195313 1.116079101563
324 1540822817.526374578476 -0.060720068693 -0.004261057484 -0.019174759849 0.684975585938 -9.838740234375 1.106499023438
325 1540822817.527375698090 -0.060720068693 -0.004261057484 -0.019174759849 0.699345703125 -9.857900390625 1.096918945313
326 1540822817.528376579285 -0.060720068693 -0.003195793048 -0.020240024285 0.704135742188 -9.867480468750 1.092128906250
327 1540822817.529377698898 -0.059654804257 -0.003195793048 -0.021305288721 0.713715820313 -9.857900390625 1.092128906250
328 1540822817.530378580093 -0.059654804257 -0.003195793048 -0.021305288721 0.713715820313 -9.848320312500 1.092128906250
329 1540822817.531379699707 -0.059654804257 -0.003195793048 -0.022370551076 0.708925781250 -9.838740234375 1.092128906250
330 1540822817.532380580902 -0.059654804257 -0.003195793048 -0.022370551076 0.699345703125 -9.838740234375 1.092128906250
331 1540822817.533381700516 -0.060720068693 -0.003195793048 -0.022370551076 0.684975585938 -9.843530273437 1.092128906250
332 1540822817.534382581711 -0.060720068693 -0.003195793048 -0.023435815512 0.665815429688 -9.838740234375 1.087338867187
333 1540822817.535384654999 -0.059654804257 -0.003195793048 -0.023435815512 0.661025390625 -9.824370117188 1.087338867187
334 1540822817.536385774612 -0.059654804257 -0.004261057484 -0.023435815512 0.670605468750 -9.819580078125 1.082548828125
335 1540822817.537386655807 -0.060720068693 -0.004261057484 -0.023435815512 0.680185546875 -9.814790039063 1.077758789062
336 1540822817.538387775421 -0.060720068693 -0.004261057484 -0.023435815512 0.689765625000 -9.814790039063 1.077758789062
337 1540822817.539388656616 -0.060720068693 -0.004261057484 -0.023435815512 0.699345703125 -9.810000000000 1.077758789062
338 1540822817.540389776230 -0.060720068693 -0.004261057484 -0.023435815512 0.694555664063 -9.800419921875 1.092128906250
339 1540822817.541390657425 -0.060720068693 -0.005326322180 -0.022370551076 0.689765625000 -9.795629882813 1.101708984375
340 1540822817.542391777039 -0.060720068693 -0.006391586096 -0.021305288721 0.680185546875 -9.805209960937 1.101708984375
341 1540822817.543392658234 -0.060720068693 -0.005326322180 -0.021305288721 0.675395507813 -9.805209960937 1.101708984375
342 1540822817.544393777847 -0.060720068693 -0.005326322180 -0.021305288721 0.680185546875 -9.800419921875 1.106499023438
343 1540822817.545394659042 -0.060720068693 -0.005326322180 -0.021305288721 0.689765625000 -9.800419921875 1.111289062500
344 1540822817.546395778656 -0.060720068693 -0.005326322180 -0.021305288721 0.689765625000 -9.795629882813 1.106499023438
345 1540822817.547396659851 -0.060720068693 -0.005326322180 -0.020240024285 0.694555664063 -9.790839843750 1.106499023438
346 1540822817.548397779465 -0.060720068693 -0.004261057484 -0.020240024285 0.699345703125 -9.790839843750 1.106499023438
347 1540822817.549398660660 -0.060720068693 -0.004261057484 -0.020240024285 0.699345703125 -9.800419921875 1.116079101563
348 1540822817.550399780273 -0.059654804257 -0.003195793048 -0.019174759849 0.704135742188 -9.814790039063 1.125659179687
349 1540822817.551400661469 -0.059654804257 -0.003195793048 -0.019174759849 0.694555664063 -9.824370117188 1.120869140625
350 1540822817.552402734756 -0.059654804257 -0.003195793048 -0.018109495413 0.670605468750 -9.824370117188 1.106499023438
351 1540822817.553403615952 -0.059654804257 -0.003195793048 -0.018109495413 0.651445312500 -9.824370117188 1.101708984375
352 1540822817.554404735565 -0.060720068693 -0.002130528742 -0.018109495413 0.637075195313 -9.824370117188 1.111289062500
353 1540822817.555405616760 -0.060720068693 -0.002130528742 -0.017044229936 0.646655273438 -9.824370117188 1.116079101563
354 1540822817.556406736374 -0.060720068693 -0.002130528742 -0.017044229936 0.651445312500 -9.819580078125 1.116079101563
355 1540822817.557406663895 -0.060720068693 -0.002130528742 -0.017044229936 0.651445312500 -9.814790039063 1.101708984375
356 1540822817.558407783508 -0.060720068693 -0.002130528742 -0.017044229936 0.651445312500 -9.814790039063 1.101708984375
357 1540822817.559408664703 -0.061785333129 -0.003195793048 -0.018109495413 0.656235351563 -9.819580078125 1.106499023438
358 1540822817.560409784317 -0.061785333129 -0.003195793048 -0.017044229936 0.656235351563 -9.824370117188 1.111289062500
359 1540822817.561410665512 -0.062850597565 -0.004261057484 -0.017044229936 0.656235351563 -9.824370117188 1.116079101563
360 1540822817.562411785126 -0.062850597565 -0.004261057484 -0.018109495413 0.661025390625 -9.829160156250 1.116079101563
361 1540822817.563412666321 -0.062850597565 -0.004261057484 -0.018109495413 0.670605468750 -9.829160156250 1.106499023438
362 1540822817.564413785934 -0.062850597565 -0.004261057484 -0.018109495413 0.680185546875 -9.829160156250 1.096918945313
363 1540822817.565414667130 -0.062850597565 -0.003195793048 -0.019174759849 0.684975585938 -9.833950195313 1.096918945313
364 1540822817.566416740417 -0.062850597565 -0.003195793048 -0.019174759849 0.684975585938 -9.838740234375 1.096918945313
365 1540822817.567417621613 -0.061785333129 -0.003195793048 -0.019174759849 0.684975585938 -9.848320312500 1.101708984375
366 1540822817.568418741226 -0.060720068693 -0.003195793048 -0.019174759849 0.689765625000 -9.838740234375 1.106499023438
367 1540822817.569419622421 -0.060720068693 -0.002130528742 -0.020240024285 0.694555664063 -9.833950195313 1.111289062500
368 1540822817.570420742035 -0.060720068693 -0.002130528742 -0.021305288721 0.694555664063 -9.829160156250 1.101708984375
369 1540822817.571421623230 -0.060720068693 -0.003195793048 -0.022370551076 0.689765625000 -9.824370117188 1.096918945313
370 1540822817.572422742844 -0.060720068693 -0.003195793048 -0.022370551076 0.689765625000 -9.819580078125 1.096918945313
371 1540822817.573423624039 -0.059654804257 -0.003195793048 -0.022370551076 0.689765625000 -9.814790039063 1.106499023438
372 1540822817.574424743652 -0.059654804257 -0.003195793048 -0.022370551076 0.684975585938 -9.805209960937 1.116079101563
373 1540822817.575425624847 -0.060720068693 -0.003195793048 -0.022370551076 0.675395507813 -9.800419921875 1.130449218750
374 1540822817.576426744461 -0.060720068693 -0.003195793048 -0.022370551076 0.670605468750 -9.795629882813 1.149609375000
375 1540822817.577427625656 -0.060720068693 -0.004261057484 -0.023435815512 0.665815429688 -9.795629882813 1.154399414063
376 1540822817.578428745270 -0.061785333129 -0.004261057484 -0.022370551076 0.665815429688 -9.790839843750 1.144819335938
377 1540822817.579429626465 -0.061785333129 -0.004261057484 -0.022370551076 0.665815429688 -9.795629882813 1.130449218750
378 1540822817.580430746078 -0.061785333129 -0.004261057484 -0.021305288721 0.661025390625 -9.800419921875 1.125659179687
379 1540822817.581431627274 -0.060720068693 -0.004261057484 -0.021305288721 0.661025390625 -9.805209960937 1.120869140625
380 1540822817.582432746887 -0.060720068693 -0.004261057484 -0.021305288721 0.661025390625 -9.810000000000 1.116079101563
381 1540822817.583434581757 -0.060720068693 -0.004261057484 -0.020240024285 0.665815429688 -9.819580078125 1.106499023438
382 1540822817.584435701370 -0.060720068693 -0.004261057484 -0.020240024285 0.675395507813 -9.819580078125 1.092128906250
383 1540822817.585436582565 -0.060720068693 -0.003195793048 -0.020240024285 0.675395507813 -9.819580078125 1.092128906250
384 1540822817.586437702179 -0.060720068693 -0.003195793048 -0.020240024285 0.680185546875 -9.814790039063 1.082548828125
385 1540822817.587438583374 -0.061785333129 -0.003195793048 -0.020240024285 0.689765625000 -9.810000000000 1.068178710938
386 1540822817.588439702988 -0.061785333129 -0.003195793048 -0.020240024285 0.694555664063 -9.810000000000 1.068178710938
387 1540822817.589440584183 -0.061785333129 -0.003195793048 -0.020240024285 0.694555664063 -9.814790039063 1.077758789062
388 1540822817.590441703796 -0.060720068693 -0.002130528742 -0.020240024285 0.694555664063 -9.814790039063 1.092128906250
389 1540822817.591442584991 -0.060720068693 -0.002130528742 -0.019174759849 0.689765625000 -9.810000000000 1.106499023438
390 1540822817.592443704605 -0.061785333129 -0.001065264371 -0.018109495413 0.680185546875 -9.805209960937 1.120869140625
391 1540822817.593444585800 -0.062850597565 -0.001065264371 -0.018109495413 0.661025390625 -9.805209960937 1.130449218750
392 1540822817.594445705414 -0.062850597565 -0.002130528742 -0.018109495413 0.646655273438 -9.800419921875 1.130449218750
393 1540822817.595446586609 -0.063915862001 -0.003195793048 -0.018109495413 0.651445312500 -9.795629882813 1.125659179687
394 1540822817.596447706223 -0.063915862001 -0.003195793048 -0.018109495413 0.656235351563 -9.786049804688 1.120869140625
395 1540822817.597448587418 -0.062850597565 -0.003195793048 -0.018109495413 0.651445312500 -9.790839843750 1.120869140625
396 1540822817.598449707031 -0.063915862001 -0.003195793048 -0.018109495413 0.646655273438 -9.800419921875 1.120869140625
397 1540822817.599450588226 -0.063915862001 -0.004261057484 -0.018109495413 0.646655273438 -9.810000000000 1.116079101563
398 1540822817.600452661514 -0.063915862001 -0.004261057484 -0.017044229936 0.641865234375 -9.814790039063 1.101708984375
399 1540822817.601453781128 -0.062850597565 -0.004261057484 -0.017044229936 0.637075195313 -9.824370117188 1.087338867187
400 1540822817.602454662323 -0.062850597565 -0.003195793048 -0.017044229936 0.641865234375 -9.829160156250 1.092128906250
401 1540822817.603455781937 -0.062850597565 -0.003195793048 -0.018109495413 0.646655273438 -9.838740234375 1.101708984375
402 1540822817.604456663132 -0.062850597565 -0.003195793048 -0.018109495413 0.661025390625 -9.838740234375 1.096918945313
403 1540822817.605457782745 -0.062850597565 -0.003195793048 -0.018109495413 0.670605468750 -9.838740234375 1.101708984375
404 1540822817.606458663940 -0.061785333129 -0.003195793048 -0.018109495413 0.675395507813 -9.838740234375 1.111289062500
405 1540822817.607459783554 -0.061785333129 -0.003195793048 -0.018109495413 0.675395507813 -9.843530273437 1.116079101563
406 1540822817.608460664749 -0.061785333129 -0.002130528742 -0.019174759849 0.675395507813 -9.853110351563 1.120869140625
407 1540822817.609461784363 -0.061785333129 -0.002130528742 -0.019174759849 0.684975585938 -9.857900390625 1.111289062500
408 1540822817.610462665558 -0.061785333129 -0.002130528742 -0.020240024285 0.699345703125 -9.862690429688 1.106499023438
409 1540822817.611463785172 -0.061785333129 -0.002130528742 -0.019174759849 0.704135742188 -9.857900390625 1.111289062500
410 1540822817.612464666367 -0.061785333129 -0.002130528742 -0.019174759849 0.689765625000 -9.857900390625 1.116079101563
411 1540822817.613465785980 -0.061785333129 -0.002130528742 -0.019174759849 0.675395507813 -9.862690429688 1.116079101563
412 1540822817.614466667175 -0.060720068693 -0.002130528742 -0.020240024285 0.665815429688 -9.857900390625 1.120869140625
413 1540822817.615467786789 -0.060720068693 -0.002130528742 -0.020240024285 0.665815429688 -9.848320312500 1.120869140625
414 1540822817.616468667984 -0.060720068693 -0.002130528742 -0.020240024285 0.670605468750 -9.833950195313 1.125659179687
415 1540822817.617469787598 -0.061785333129 -0.002130528742 -0.020240024285 0.661025390625 -9.824370117188 1.125659179687
416 1540822817.618471622467 -0.061785333129 -0.003195793048 -0.020240024285 0.651445312500 -9.829160156250 1.140029296875
417 1540822817.619472742081 -0.061785333129 -0.004261057484 -0.020240024285 0.651445312500 -9.833950195313 1.144819335938
418 1540822817.620473623276 -0.061785333129 -0.004261057484 -0.020240024285 0.651445312500 -9.824370117188 1.140029296875
419 1540822817.621474742889 -0.061785333129 -0.004261057484 -0.020240024285 0.651445312500 -9.819580078125 1.120869140625
420 1540822817.622475624084 -0.061785333129 -0.004261057484 -0.020240024285 0.656235351563 -9.819580078125 1.106499023438
421 1540822817.623476743698 -0.060720068693 -0.003195793048 -0.020240024285 0.670605468750 -9.819580078125 1.101708984375
422 1540822817.624477624893 -0.060720068693 -0.003195793048 -0.020240024285 0.684975585938 -9.824370117188 1.096918945313
423 1540822817.625478744507 -0.060720068693 -0.003195793048 -0.019174759849 0.699345703125 -9.838740234375 1.101708984375
424 1540822817.626479625702 -0.059654804257 -0.003195793048 -0.019174759849 0.699345703125 -9.838740234375 1.106499023438
425 1540822817.627480745316 -0.059654804257 -0.002130528742 -0.020240024285 0.689765625000 -9.833950195313 1.101708984375
426 1540822817.628481626511 -0.059654804257 -0.003195793048 -0.020240024285 0.694555664063 -9.829160156250 1.101708984375
427 1540822817.629482746124 -0.059654804257 -0.003195793048 -0.020240024285 0.699345703125 -9.829160156250 1.111289062500
428 1540822817.630483627319 -0.059654804257 -0.003195793048 -0.020240024285 0.699345703125 -9.829160156250 1.120869140625
429 1540822817.631484746933 -0.059654804257 -0.003195793048 -0.020240024285 0.708925781250 -9.829160156250 1.130449218750
430 1540822817.632485628128 -0.060720068693 -0.003195793048 -0.020240024285 0.713715820313 -9.824370117188 1.130449218750
431 1540822817.633486747742 -0.060720068693 -0.003195793048 -0.020240024285 0.704135742188 -9.814790039063 1.125659179687
432 1540822817.634488582611 -0.060720068693 -0.003195793048 -0.019174759849 0.689765625000 -9.810000000000 1.125659179687
433 1540822817.635489702225 -0.060720068693 -0.004261057484 -0.018109495413 0.684975585938 -9.810000000000 1.135239257813
434 1540822817.636490583420 -0.060720068693 -0.004261057484 -0.018109495413 0.675395507813 -9.814790039063 1.140029296875
435 1540822817.637491703033 -0.060720068693 -0.004261057484 -0.018109495413 0.656235351563 -9.819580078125 1.144819335938
436 1540822817.638492584229 -0.060720068693 -0.004261057484 -0.018109495413 0.656235351563 -9.814790039063 1.140029296875
437 1540822817.639493703842 -0.061785333129 -0.003195793048 -0.018109495413 0.670605468750 -9.814790039063 1.125659179687
438 1540822817.640494585037 -0.061785333129 -0.003195793048 -0.018109495413 0.684975585938 -9.824370117188 1.111289062500
439 1540822817.641495704651 -0.061785333129 -0.003195793048 -0.018109495413 0.689765625000 -9.838740234375 1.111289062500
440 1540822817.642496585846 -0.061785333129 -0.003195793048 -0.018109495413 0.689765625000 -9.843530273437 1.116079101563
441 1540822817.643497705460 -0.061785333129 -0.002130528742 -0.019174759849 0.689765625000 -9.843530273437 1.120869140625
442 1540822817.644498586655 -0.060720068693 -0.002130528742 -0.019174759849 0.689765625000 -9.843530273437 1.125659179687
443 1540822817.645499706268 -0.060720068693 -0.002130528742 -0.019174759849 0.699345703125 -9.843530273437 1.125659179687
444 1540822817.646500587463 -0.060720068693 -0.002130528742 -0.019174759849 0.704135742188 -9.848320312500 1.125659179687
445 1540822817.647501707077 -0.060720068693 -0.001065264371 -0.019174759849 0.708925781250 -9.843530273437 1.120869140625
446 1540822817.648502588272 -0.059654804257 -0.001065264371 -0.019174759849 0.713715820313 -9.838740234375 1.111289062500
447 1540822817.649503707886 -0.060720068693 -0.002130528742 -0.019174759849 0.708925781250 -9.833950195313 1.111289062500
448 1540822817.650504589081 -0.060720068693 -0.002130528742 -0.019174759849 0.694555664063 -9.833950195313 1.120869140625
449 1540822817.651505708694 -0.060720068693 -0.002130528742 -0.019174759849 0.680185546875 -9.838740234375 1.120869140625
450 1540822817.652506589890 -0.060720068693 -0.003195793048 -0.019174759849 0.670605468750 -9.838740234375 1.125659179687
451 1540822817.653507709503 -0.060720068693 -0.003195793048 -0.020240024285 0.656235351563 -9.833950195313 1.130449218750
452 1540822817.654508590698 -0.060720068693 -0.003195793048 -0.020240024285 0.637075195313 -9.829160156250 1.140029296875
453 1540822817.655509710312 -0.060720068693 -0.003195793048 -0.020240024285 0.622705078125 -9.829160156250 1.144819335938
454 1540822817.656510591507 -0.061785333129 -0.003195793048 -0.021305288721 0.617915039063 -9.833950195313 1.144819335938
455 1540822817.657511711121 -0.061785333129 -0.004261057484 -0.021305288721 0.627495117188 -9.838740234375 1.135239257813
456 1540822817.658512592316 -0.061785333129 -0.004261057484 -0.021305288721 0.646655273438 -9.838740234375 1.125659179687
457 1540822817.659513711929 -0.061785333129 -0.004261057484 -0.021305288721 0.651445312500 -9.838740234375 1.116079101563
458 1540822817.660514593124 -0.062850597565 -0.004261057484 -0.021305288721 0.661025390625 -9.833950195313 1.106499023438
459 1540822817.661515712738 -0.062850597565 -0.004261057484 -0.021305288721 0.665815429688 -9.829160156250 1.106499023438
460 1540822817.662516593933 -0.063915862001 -0.004261057484 -0.021305288721 0.665815429688 -9.824370117188 1.101708984375
461 1540822817.663517713547 -0.063915862001 -0.004261057484 -0.021305288721 0.670605468750 -9.833950195313 1.096918945313
462 1540822817.664518594742 -0.063915862001 -0.004261057484 -0.021305288721 0.684975585938 -9.843530273437 1.106499023438
463 1540822817.665520668030 -0.063915862001 -0.003195793048 -0.021305288721 0.699345703125 -9.838740234375 1.111289062500
464 1540822817.666521787643 -0.062850597565 -0.003195793048 -0.021305288721 0.704135742188 -9.833950195313 1.101708984375
465 1540822817.667522668839 -0.062850597565 -0.004261057484 -0.021305288721 0.699345703125 -9.824370117188 1.092128906250
466 1540822817.668523788452 -0.061785333129 -0.004261057484 -0.021305288721 0.699345703125 -9.819580078125 1.092128906250
467 1540822817.669524669647 -0.061785333129 -0.004261057484 -0.021305288721 0.689765625000 -9.824370117188 1.096918945313
468 1540822817.670525789261 -0.060720068693 -0.004261057484 -0.021305288721 0.680185546875 -9.829160156250 1.096918945313
469 1540822817.671526670456 -0.060720068693 -0.003195793048 -0.021305288721 0.680185546875 -9.829160156250 1.106499023438
470 1540822817.672527790070 -0.061785333129 -0.003195793048 -0.021305288721 0.675395507813 -9.829160156250 1.120869140625
471 1540822817.673528671265 -0.061785333129 -0.004261057484 -0.022370551076 0.665815429688 -9.824370117188 1.130449218750
472 1540822817.674529790878 -0.061785333129 -0.004261057484 -0.021305288721 0.661025390625 -9.824370117188 1.140029296875
473 1540822817.675530672073 -0.062850597565 -0.005326322180 -0.020240024285 0.661025390625 -9.824370117188 1.144819335938
474 1540822817.676531791687 -0.062850597565 -0.005326322180 -0.020240024285 0.656235351563 -9.829160156250 1.140029296875
475 1540822817.677532672882 -0.062850597565 -0.005326322180 -0.020240024285 0.661025390625 -9.824370117188 1.130449218750
476 1540822817.678533792496 -0.062850597565 -0.004261057484 -0.019174759849 0.665815429688 -9.805209960937 1.125659179687
477 1540822817.679534673691 -0.062850597565 -0.003195793048 -0.019174759849 0.670605468750 -9.800419921875 1.120869140625
478 1540822817.680535793304 -0.062850597565 -0.003195793048 -0.019174759849 0.680185546875 -9.800419921875 1.120869140625
479 1540822817.681536674500 -0.062850597565 -0.003195793048 -0.019174759849 0.684975585938 -9.795629882813 1.125659179687
480 1540822817.682538747787 -0.062850597565 -0.003195793048 -0.020240024285 0.694555664063 -9.790839843750 1.125659179687
481 1540822817.683539628983 -0.061785333129 -0.003195793048 -0.019174759849 0.699345703125 -9.786049804688 1.120869140625
482 1540822817.684540748596 -0.061785333129 -0.003195793048 -0.019174759849 0.699345703125 -9.786049804688 1.120869140625
483 1540822817.685541629791 -0.061785333129 -0.003195793048 -0.018109495413 0.708925781250 -9.795629882813 1.135239257813
484 1540822817.686542749405 -0.060720068693 -0.003195793048 -0.018109495413 0.728085937500 -9.810000000000 1.144819335938
485 1540822817.687543630600 -0.060720068693 -0.003195793048 -0.019174759849 0.737666015625 -9.819580078125 1.140029296875
486 1540822817.688544750214 -0.060720068693 -0.002130528742 -0.019174759849 0.737666015625 -9.814790039063 1.140029296875
487 1540822817.689545631409 -0.059654804257 -0.002130528742 -0.019174759849 0.728085937500 -9.814790039063 1.140029296875
488 1540822817.690546751022 -0.059654804257 -0.003195793048 -0.020240024285 0.708925781250 -9.819580078125 1.149609375000
489 1540822817.691547632217 -0.059654804257 -0.003195793048 -0.020240024285 0.704135742188 -9.814790039063 1.149609375000
490 1540822817.692548751831 -0.060720068693 -0.003195793048 -0.020240024285 0.694555664063 -9.814790039063 1.135239257813
491 1540822817.693549633026 -0.060720068693 -0.003195793048 -0.019174759849 0.684975585938 -9.810000000000 1.120869140625
492 1540822817.694550752640 -0.061785333129 -0.003195793048 -0.019174759849 0.670605468750 -9.805209960937 1.106499023438
493 1540822817.695551633835 -0.061785333129 -0.003195793048 -0.019174759849 0.661025390625 -9.810000000000 1.106499023438
494 1540822817.696552753448 -0.061785333129 -0.003195793048 -0.019174759849 0.656235351563 -9.819580078125 1.116079101563
495 1540822817.697553634644 -0.061785333129 -0.003195793048 -0.019174759849 0.661025390625 -9.824370117188 1.120869140625
496 1540822817.698554754257 -0.061785333129 -0.004261057484 -0.020240024285 0.665815429688 -9.829160156250 1.130449218750
497 1540822817.699555635452 -0.061785333129 -0.004261057484 -0.020240024285 0.661025390625 -9.838740234375 1.135239257813
498 1540822817.700557708740 -0.061785333129 -0.004261057484 -0.019174759849 0.661025390625 -9.833950195313 1.130449218750
499 1540822817.701558589935 -0.061785333129 -0.004261057484 -0.019174759849 0.661025390625 -9.824370117188 1.120869140625
500 1540822817.702559709549 -0.061785333129 -0.003195793048 -0.019174759849 0.665815429688 -9.824370117188 1.106499023438
501 1540822817.703560590744 -0.061785333129 -0.003195793048 -0.019174759849 0.675395507813 -9.824370117188 1.096918945313
502 1540822817.704561710358 -0.060720068693 -0.003195793048 -0.019174759849 0.694555664063 -9.824370117188 1.096918945313
503 1540822817.705562591553 -0.060720068693 -0.003195793048 -0.019174759849 0.713715820313 -9.829160156250 1.092128906250
504 1540822817.706563711166 -0.061785333129 -0.004261057484 -0.021305288721 0.723295898438 -9.843530273437 1.092128906250
505 1540822817.707564592361 -0.061785333129 -0.003195793048 -0.021305288721 0.723295898438 -9.843530273437 1.101708984375
506 1540822817.708565711975 -0.060720068693 -0.003195793048 -0.021305288721 0.713715820313 -9.833950195313 1.120869140625
507 1540822817.709566593170 -0.060720068693 -0.003195793048 -0.021305288721 0.708925781250 -9.829160156250 1.125659179687
508 1540822817.710567712784 -0.061785333129 -0.003195793048 -0.021305288721 0.699345703125 -9.829160156250 1.130449218750
509 1540822817.711568593979 -0.061785333129 -0.002130528742 -0.021305288721 0.684975585938 -9.824370117188 1.130449218750
510 1540822817.712569713593 -0.061785333129 -0.002130528742 -0.021305288721 0.670605468750 -9.824370117188 1.135239257813
511 1540822817.713570594788 -0.061785333129 -0.002130528742 -0.022370551076 0.661025390625 -9.819580078125 1.135239257813
512 1540822817.714571714401 -0.061785333129 -0.003195793048 -0.022370551076 0.651445312500 -9.824370117188 1.125659179687
513 1540822817.715572595596 -0.061785333129 -0.003195793048 -0.022370551076 0.661025390625 -9.819580078125 1.125659179687
514 1540822817.716573715210 -0.061785333129 -0.003195793048 -0.022370551076 0.670605468750 -9.814790039063 1.130449218750
515 1540822817.717575788498 -0.062850597565 -0.003195793048 -0.021305288721 0.680185546875 -9.810000000000 1.111289062500
516 1540822817.718576669693 -0.062850597565 -0.003195793048 -0.021305288721 0.684975585938 -9.810000000000 1.101708984375
517 1540822817.719577789307 -0.062850597565 -0.003195793048 -0.020240024285 0.680185546875 -9.810000000000 1.106499023438
518 1540822817.720578670502 -0.062850597565 -0.003195793048 -0.020240024285 0.665815429688 -9.805209960937 1.106499023438
519 1540822817.721579790115 -0.061785333129 -0.003195793048 -0.020240024285 0.661025390625 -9.800419921875 1.096918945313
520 1540822817.722580671310 -0.061785333129 -0.004261057484 -0.019174759849 0.665815429688 -9.800419921875 1.082548828125
521 1540822817.723581790924 -0.061785333129 -0.004261057484 -0.019174759849 0.670605468750 -9.810000000000 1.082548828125
522 1540822817.724582672119 -0.061785333129 -0.003195793048 -0.018109495413 0.670605468750 -9.824370117188 1.077758789062
523 1540822817.725583791733 -0.061785333129 -0.003195793048 -0.018109495413 0.670605468750 -9.829160156250 1.068178710938
524 1540822817.726584672928 -0.061785333129 -0.003195793048 -0.018109495413 0.675395507813 -9.824370117188 1.072968750000
525 1540822817.727585792542 -0.060720068693 -0.003195793048 -0.019174759849 0.680185546875 -9.824370117188 1.092128906250
526 1540822817.728586673737 -0.060720068693 -0.002130528742 -0.019174759849 0.680185546875 -9.829160156250 1.101708984375
527 1540822817.729587793350 -0.060720068693 -0.002130528742 -0.020240024285 0.675395507813 -9.829160156250 1.101708984375
528 1540822817.730588674545 -0.060720068693 -0.002130528742 -0.020240024285 0.665815429688 -9.824370117188 1.111289062500
529 1540822817.731589794159 -0.060720068693 -0.002130528742 -0.020240024285 0.661025390625 -9.824370117188 1.116079101563
530 1540822817.732590675354 -0.060720068693 -0.003195793048 -0.020240024285 0.661025390625 -9.824370117188 1.111289062500
531 1540822817.733591794968 -0.060720068693 -0.003195793048 -0.020240024285 0.665815429688 -9.819580078125 1.116079101563
532 1540822817.734593629837 -0.061785333129 -0.003195793048 -0.020240024285 0.656235351563 -9.814790039063 1.116079101563
533 1540822817.735594749451 -0.061785333129 -0.003195793048 -0.020240024285 0.665815429688 -9.814790039063 1.120869140625
534 1540822817.736595630646 -0.061785333129 -0.003195793048 -0.020240024285 0.670605468750 -9.819580078125 1.120869140625
535 1540822817.737596750259 -0.062850597565 -0.004261057484 -0.020240024285 0.665815429688 -9.819580078125 1.106499023438
536 1540822817.738597631454 -0.062850597565 -0.004261057484 -0.020240024285 0.670605468750 -9.814790039063 1.096918945313
537 1540822817.739598751068 -0.063915862001 -0.004261057484 -0.020240024285 0.670605468750 -9.814790039063 1.082548828125
538 1540822817.740599632263 -0.062850597565 -0.004261057484 -0.020240024285 0.670605468750 -9.814790039063 1.068178710938
539 1540822817.741600751877 -0.062850597565 -0.004261057484 -0.020240024285 0.675395507813 -9.814790039063 1.072968750000
540 1540822817.742601633072 -0.062850597565 -0.004261057484 -0.021305288721 0.689765625000 -9.810000000000 1.077758789062
541 1540822817.743602752686 -0.061785333129 -0.004261057484 -0.021305288721 0.699345703125 -9.810000000000 1.058598632813
542 1540822817.744603633881 -0.061785333129 -0.004261057484 -0.022370551076 0.708925781250 -9.814790039063 1.049018554688
543 1540822817.745604753494 -0.061785333129 -0.003195793048 -0.022370551076 0.718505859375 -9.814790039063 1.049018554688
544 1540822817.746605634689 -0.060720068693 -0.003195793048 -0.022370551076 0.704135742188 -9.819580078125 1.044228515625
545 1540822817.747606754303 -0.060720068693 -0.003195793048 -0.022370551076 0.689765625000 -9.824370117188 1.058598632813
546 1540822817.748607635498 -0.060720068693 -0.003195793048 -0.023435815512 0.680185546875 -9.819580078125 1.082548828125
547 1540822817.749608755112 -0.060720068693 -0.003195793048 -0.023435815512 0.670605468750 -9.819580078125 1.092128906250
548 1540822817.750609636307 -0.059654804257 -0.003195793048 -0.022370551076 0.665815429688 -9.829160156250 1.087338867187
549 1540822817.751610755920 -0.059654804257 -0.003195793048 -0.022370551076 0.656235351563 -9.829160156250 1.077758789062
550 1540822817.752611637115 -0.059654804257 -0.003195793048 -0.021305288721 0.661025390625 -9.819580078125 1.077758789062
551 1540822817.753612756729 -0.060720068693 -0.002130528742 -0.021305288721 0.661025390625 -9.814790039063 1.082548828125
552 1540822817.754613637924 -0.060720068693 -0.003195793048 -0.020240024285 0.670605468750 -9.819580078125 1.087338867187
553 1540822817.755614757538 -0.060720068693 -0.003195793048 -0.020240024285 0.675395507813 -9.829160156250 1.087338867187
554 1540822817.756615638733 -0.060720068693 -0.004261057484 -0.020240024285 0.675395507813 -9.838740234375 1.087338867187
555 1540822817.757616758347 -0.060720068693 -0.004261057484 -0.020240024285 0.661025390625 -9.829160156250 1.096918945313
556 1540822817.758617639542 -0.061785333129 -0.004261057484 -0.019174759849 0.661025390625 -9.824370117188 1.096918945313
557 1540822817.759618759155 -0.061785333129 -0.004261057484 -0.019174759849 0.670605468750 -9.819580078125 1.092128906250
558 1540822817.760619640350 -0.061785333129 -0.004261057484 -0.019174759849 0.670605468750 -9.814790039063 1.082548828125
559 1540822817.761620759964 -0.061785333129 -0.004261057484 -0.019174759849 0.675395507813 -9.819580078125 1.077758789062
560 1540822817.762621641159 -0.061785333129 -0.004261057484 -0.019174759849 0.680185546875 -9.824370117188 1.082548828125
561 1540822817.763622760773 -0.060720068693 -0.004261057484 -0.019174759849 0.680185546875 -9.819580078125 1.092128906250
562 1540822817.764623641968 -0.061785333129 -0.004261057484 -0.019174759849 0.694555664063 -9.819580078125 1.111289062500
563 1540822817.765625715256 -0.061785333129 -0.004261057484 -0.019174759849 0.704135742188 -9.829160156250 1.125659179687
564 1540822817.766626596451 -0.060720068693 -0.003195793048 -0.019174759849 0.694555664063 -9.829160156250 1.120869140625
565 1540822817.767627716064 -0.060720068693 -0.003195793048 -0.019174759849 0.689765625000 -9.824370117188 1.120869140625
566 1540822817.768628597260 -0.060720068693 -0.003195793048 -0.019174759849 0.689765625000 -9.814790039063 1.120869140625
567 1540822817.769629716873 -0.060720068693 -0.003195793048 -0.019174759849 0.684975585938 -9.814790039063 1.120869140625
568 1540822817.770630598068 -0.060720068693 -0.003195793048 -0.019174759849 0.670605468750 -9.819580078125 1.125659179687
569 1540822817.771631717682 -0.060720068693 -0.002130528742 -0.019174759849 0.656235351563 -9.824370117188 1.140029296875
570 1540822817.772632598877 -0.060720068693 -0.003195793048 -0.020240024285 0.651445312500 -9.824370117188 1.149609375000
571 1540822817.773633718491 -0.060720068693 -0.003195793048 -0.020240024285 0.651445312500 -9.829160156250 1.149609375000
572 1540822817.774634599686 -0.061785333129 -0.003195793048 -0.020240024285 0.651445312500 -9.833950195313 1.135239257813
573 1540822817.775635719299 -0.061785333129 -0.003195793048 -0.020240024285 0.661025390625 -9.838740234375 1.125659179687
574 1540822817.776636600494 -0.062850597565 -0.003195793048 -0.020240024285 0.665815429688 -9.833950195313 1.120869140625
575 1540822817.777637720108 -0.062850597565 -0.004261057484 -0.019174759849 0.670605468750 -9.829160156250 1.120869140625
576 1540822817.778638601303 -0.061785333129 -0.004261057484 -0.019174759849 0.670605468750 -9.814790039063 1.120869140625
577 1540822817.779639720917 -0.061785333129 -0.005326322180 -0.019174759849 0.670605468750 -9.800419921875 1.116079101563
578 1540822817.780640602112 -0.062850597565 -0.004261057484 -0.020240024285 0.675395507813 -9.810000000000 1.111289062500
579 1540822817.781641721725 -0.062850597565 -0.004261057484 -0.020240024285 0.684975585938 -9.819580078125 1.092128906250
580 1540822817.782643795013 -0.062850597565 -0.003195793048 -0.020240024285 0.694555664063 -9.824370117188 1.068178710938
581 1540822817.783644676208 -0.061785333129 -0.003195793048 -0.020240024285 0.694555664063 -9.829160156250 1.068178710938
582 1540822817.784645795822 -0.061785333129 -0.003195793048 -0.020240024285 0.699345703125 -9.819580078125 1.092128906250
583 1540822817.785646677017 -0.061785333129 -0.003195793048 -0.021305288721 0.708925781250 -9.800419921875 1.106499023438
584 1540822817.786647796631 -0.060720068693 -0.004261057484 -0.021305288721 0.713715820313 -9.786049804688 1.116079101563
585 1540822817.787648677826 -0.060720068693 -0.004261057484 -0.022370551076 0.713715820313 -9.795629882813 1.116079101563
586 1540822817.788649797440 -0.060720068693 -0.004261057484 -0.021305288721 0.713715820313 -9.805209960937 1.101708984375
587 1540822817.789650678635 -0.061785333129 -0.003195793048 -0.021305288721 0.704135742188 -9.814790039063 1.092128906250
588 1540822817.790651798248 -0.061785333129 -0.003195793048 -0.021305288721 0.699345703125 -9.824370117188 1.092128906250
589 1540822817.791652679443 -0.061785333129 -0.003195793048 -0.022370551076 0.694555664063 -9.838740234375 1.087338867187
590 1540822817.792653799057 -0.061785333129 -0.003195793048 -0.022370551076 0.684975585938 -9.848320312500 1.082548828125
591 1540822817.793654680252 -0.061785333129 -0.004261057484 -0.022370551076 0.670605468750 -9.843530273437 1.087338867187
592 1540822817.794655799866 -0.062850597565 -0.004261057484 -0.021305288721 0.661025390625 -9.833950195313 1.077758789062
593 1540822817.795656681061 -0.062850597565 -0.004261057484 -0.021305288721 0.661025390625 -9.829160156250 1.063388671875
594 1540822817.796657800674 -0.062850597565 -0.005326322180 -0.021305288721 0.661025390625 -9.819580078125 1.058598632813
595 1540822817.797658681870 -0.061785333129 -0.005326322180 -0.021305288721 0.675395507813 -9.814790039063 1.068178710938
596 1540822817.798659801483 -0.061785333129 -0.005326322180 -0.020240024285 0.680185546875 -9.810000000000 1.082548828125
597 1540822817.799661636353 -0.061785333129 -0.005326322180 -0.020240024285 0.680185546875 -9.814790039063 1.101708984375
598 1540822817.800662755966 -0.061785333129 -0.005326322180 -0.019174759849 0.684975585938 -9.810000000000 1.101708984375
599 1540822817.801663637161 -0.061785333129 -0.005326322180 -0.018109495413 0.689765625000 -9.814790039063 1.092128906250
600 1540822817.802664756775 -0.060720068693 -0.005326322180 -0.018109495413 0.699345703125 -9.824370117188 1.087338867187
601 1540822817.803665637970 -0.060720068693 -0.004261057484 -0.018109495413 0.704135742188 -9.833950195313 1.096918945313
602 1540822817.804666757584 -0.060720068693 -0.003195793048 -0.019174759849 0.704135742188 -9.833950195313 1.111289062500
603 1540822817.805667638779 -0.060720068693 -0.003195793048 -0.019174759849 0.704135742188 -9.824370117188 1.120869140625
604 1540822817.806668758392 -0.059654804257 -0.002130528742 -0.019174759849 0.699345703125 -9.819580078125 1.120869140625
605 1540822817.807669639587 -0.060720068693 -0.002130528742 -0.018109495413 0.689765625000 -9.814790039063 1.125659179687
606 1540822817.808670759201 -0.060720068693 -0.002130528742 -0.019174759849 0.684975585938 -9.810000000000 1.130449218750
607 1540822817.809671640396 -0.060720068693 -0.003195793048 -0.020240024285 0.684975585938 -9.810000000000 1.125659179687
608 1540822817.810672760010 -0.060720068693 -0.002130528742 -0.020240024285 0.680185546875 -9.814790039063 1.116079101563
609 1540822817.811673641205 -0.060720068693 -0.002130528742 -0.020240024285 0.670605468750 -9.810000000000 1.116079101563
610 1540822817.812674760818 -0.061785333129 -0.003195793048 -0.019174759849 0.656235351563 -9.800419921875 1.116079101563
611 1540822817.813675642014 -0.061785333129 -0.004261057484 -0.019174759849 0.651445312500 -9.800419921875 1.120869140625
612 1540822817.814676761627 -0.061785333129 -0.004261057484 -0.019174759849 0.651445312500 -9.805209960937 1.130449218750
613 1540822817.815677642822 -0.061785333129 -0.004261057484 -0.018109495413 0.651445312500 -9.810000000000 1.125659179687
614 1540822817.816678762436 -0.061785333129 -0.004261057484 -0.019174759849 0.656235351563 -9.814790039063 1.116079101563
615 1540822817.817680597305 -0.061785333129 -0.004261057484 -0.019174759849 0.656235351563 -9.829160156250 1.106499023438
616 1540822817.818681716919 -0.061785333129 -0.004261057484 -0.019174759849 0.651445312500 -9.838740234375 1.101708984375
617 1540822817.819682598114 -0.062850597565 -0.004261057484 -0.020240024285 0.651445312500 -9.848320312500 1.096918945313
618 1540822817.820683717728 -0.062850597565 -0.003195793048 -0.020240024285 0.661025390625 -9.848320312500 1.101708984375
619 1540822817.821684598923 -0.062850597565 -0.003195793048 -0.020240024285 0.665815429688 -9.848320312500 1.101708984375
620 1540822817.822685718536 -0.061785333129 -0.003195793048 -0.019174759849 0.680185546875 -9.853110351563 1.101708984375
621 1540822817.823686599731 -0.061785333129 -0.003195793048 -0.020240024285 0.684975585938 -9.853110351563 1.106499023438
622 1540822817.824687719345 -0.061785333129 -0.003195793048 -0.020240024285 0.694555664063 -9.853110351563 1.106499023438
623 1540822817.825688600540 -0.061785333129 -0.003195793048 -0.021305288721 0.708925781250 -9.838740234375 1.096918945313
624 1540822817.826689720154 -0.060720068693 -0.003195793048 -0.021305288721 0.704135742188 -9.833950195313 1.087338867187
625 1540822817.827690601349 -0.060720068693 -0.003195793048 -0.021305288721 0.694555664063 -9.833950195313 1.082548828125
626 1540822817.828691720963 -0.060720068693 -0.003195793048 -0.022370551076 0.684975585938 -9.833950195313 1.087338867187
627 1540822817.829692602158 -0.060720068693 -0.003195793048 -0.022370551076 0.675395507813 -9.833950195313 1.106499023438
628 1540822817.830693721771 -0.060720068693 -0.003195793048 -0.021305288721 0.675395507813 -9.838740234375 1.120869140625
629 1540822817.831694602966 -0.060720068693 -0.003195793048 -0.021305288721 0.670605468750 -9.833950195313 1.130449218750
630 1540822817.832695722580 -0.060720068693 -0.003195793048 -0.020240024285 0.670605468750 -9.824370117188 1.130449218750
631 1540822817.833696603775 -0.060720068693 -0.003195793048 -0.020240024285 0.656235351563 -9.824370117188 1.125659179687
632 1540822817.834698677063 -0.060720068693 -0.003195793048 -0.020240024285 0.646655273438 -9.819580078125 1.120869140625
633 1540822817.835699796677 -0.060720068693 -0.003195793048 -0.020240024285 0.646655273438 -9.824370117188 1.116079101563
634 1540822817.836700677872 -0.060720068693 -0.004261057484 -0.020240024285 0.651445312500 -9.824370117188 1.111289062500
635 1540822817.837701797485 -0.060720068693 -0.004261057484 -0.020240024285 0.661025390625 -9.814790039063 1.101708984375
636 1540822817.838702678680 -0.060720068693 -0.004261057484 -0.020240024285 0.670605468750 -9.814790039063 1.096918945313
637 1540822817.839703798294 -0.061785333129 -0.004261057484 -0.019174759849 0.675395507813 -9.810000000000 1.101708984375
638 1540822817.840704679489 -0.060720068693 -0.003195793048 -0.018109495413 0.689765625000 -9.810000000000 1.101708984375
639 1540822817.841705799103 -0.060720068693 -0.003195793048 -0.018109495413 0.699345703125 -9.810000000000 1.106499023438
640 1540822817.842706680298 -0.060720068693 -0.003195793048 -0.018109495413 0.694555664063 -9.814790039063 1.111289062500
641 1540822817.843706607819 -0.059654804257 -0.003195793048 -0.018109495413 0.689765625000 -9.829160156250 1.116079101563
642 1540822817.844707727432 -0.060720068693 -0.003195793048 -0.018109495413 0.689765625000 -9.843530273437 1.116079101563
643 1540822817.845708608627 -0.060720068693 -0.003195793048 -0.018109495413 0.684975585938 -9.848320312500 1.120869140625
644 1540822817.846709728241 -0.060720068693 -0.002130528742 -0.018109495413 0.689765625000 -9.848320312500 1.116079101563
645 1540822817.847710609436 -0.060720068693 -0.002130528742 -0.018109495413 0.699345703125 -9.843530273437 1.125659179687
646 1540822817.848712682724 -0.059654804257 -0.002130528742 -0.019174759849 0.704135742188 -9.833950195313 1.140029296875
647 1540822817.849713802338 -0.059654804257 -0.002130528742 -0.019174759849 0.708925781250 -9.838740234375 1.149609375000
648 1540822817.850714683533 -0.060720068693 -0.002130528742 -0.019174759849 0.708925781250 -9.833950195313 1.144819335938
649 1540822817.851715803146 -0.060720068693 -0.002130528742 -0.019174759849 0.699345703125 -9.829160156250 1.130449218750
650 1540822817.852716684341 -0.060720068693 -0.003195793048 -0.019174759849 0.680185546875 -9.824370117188 1.120869140625
651 1540822817.853717803955 -0.060720068693 -0.003195793048 -0.019174759849 0.665815429688 -9.824370117188 1.116079101563
652 1540822817.854718685150 -0.061785333129 -0.004261057484 -0.018109495413 0.656235351563 -9.829160156250 1.120869140625
653 1540822817.855719804764 -0.061785333129 -0.003195793048 -0.018109495413 0.656235351563 -9.833950195313 1.130449218750
654 1540822817.856720685959 -0.061785333129 -0.003195793048 -0.018109495413 0.665815429688 -9.829160156250 1.130449218750
655 1540822817.857721805573 -0.061785333129 -0.004261057484 -0.018109495413 0.670605468750 -9.833950195313 1.116079101563
656 1540822817.858722686768 -0.061785333129 -0.004261057484 -0.018109495413 0.675395507813 -9.833950195313 1.106499023438
657 1540822817.859723806381 -0.060720068693 -0.004261057484 -0.018109495413 0.675395507813 -9.824370117188 1.101708984375
658 1540822817.860724687576 -0.060720068693 -0.003195793048 -0.019174759849 0.680185546875 -9.810000000000 1.101708984375
659 1540822817.861725807190 -0.060720068693 -0.003195793048 -0.020240024285 0.684975585938 -9.805209960937 1.096918945313
660 1540822817.862726688385 -0.060720068693 -0.003195793048 -0.020240024285 0.689765625000 -9.810000000000 1.096918945313
661 1540822817.863727807999 -0.060720068693 -0.002130528742 -0.020240024285 0.694555664063 -9.814790039063 1.101708984375
662 1540822817.864729642868 -0.061785333129 -0.002130528742 -0.020240024285 0.694555664063 -9.819580078125 1.092128906250
663 1540822817.865730762482 -0.060720068693 -0.002130528742 -0.020240024285 0.684975585938 -9.819580078125 1.068178710938
664 1540822817.866731643677 -0.060720068693 -0.002130528742 -0.020240024285 0.675395507813 -9.824370117188 1.063388671875
665 1540822817.867732763290 -0.060720068693 -0.002130528742 -0.021305288721 0.670605468750 -9.829160156250 1.082548828125
666 1540822817.868733644485 -0.060720068693 -0.002130528742 -0.022370551076 0.665815429688 -9.829160156250 1.096918945313
667 1540822817.869734764099 -0.061785333129 -0.003195793048 -0.021305288721 0.665815429688 -9.824370117188 1.111289062500
668 1540822817.870735645294 -0.061785333129 -0.003195793048 -0.021305288721 0.661025390625 -9.824370117188 1.120869140625
669 1540822817.871736764908 -0.061785333129 -0.003195793048 -0.020240024285 0.646655273438 -9.824370117188 1.125659179687
670 1540822817.872737646103 -0.061785333129 -0.003195793048 -0.021305288721 0.641865234375 -9.824370117188 1.116079101563
671 1540822817.873738765717 -0.061785333129 -0.004261057484 -0.021305288721 0.646655273438 -9.824370117188 1.116079101563
672 1540822817.874739646912 -0.060720068693 -0.004261057484 -0.021305288721 0.661025390625 -9.814790039063 1.111289062500
673 1540822817.875740766525 -0.060720068693 -0.004261057484 -0.021305288721 0.661025390625 -9.814790039063 1.101708984375
674 1540822817.876741647720 -0.060720068693 -0.003195793048 -0.020240024285 0.670605468750 -9.824370117188 1.106499023438
675 1540822817.877742767334 -0.060720068693 -0.003195793048 -0.020240024285 0.680185546875 -9.829160156250 1.111289062500
676 1540822817.878743648529 -0.061785333129 -0.002130528742 -0.020240024285 0.675395507813 -9.829160156250 1.106499023438
677 1540822817.879744768143 -0.061785333129 -0.002130528742 -0.020240024285 0.675395507813 -9.829160156250 1.087338867187
678 1540822817.880745649338 -0.061785333129 -0.003195793048 -0.019174759849 0.680185546875 -9.819580078125 1.082548828125
679 1540822817.881746768951 -0.060720068693 -0.003195793048 -0.019174759849 0.684975585938 -9.810000000000 1.092128906250
680 1540822817.882748603821 -0.060720068693 -0.003195793048 -0.019174759849 0.680185546875 -9.800419921875 1.101708984375
681 1540822817.883749723434 -0.060720068693 -0.003195793048 -0.019174759849 0.684975585938 -9.800419921875 1.111289062500
682 1540822817.884750604630 -0.061785333129 -0.003195793048 -0.019174759849 0.694555664063 -9.810000000000 1.111289062500
683 1540822817.885751724243 -0.061785333129 -0.003195793048 -0.019174759849 0.699345703125 -9.824370117188 1.120869140625
684 1540822817.886752605438 -0.061785333129 -0.004261057484 -0.020240024285 0.704135742188 -9.829160156250 1.125659179687
685 1540822817.887753725052 -0.061785333129 -0.004261057484 -0.020240024285 0.704135742188 -9.824370117188 1.116079101563
686 1540822817.888754606247 -0.061785333129 -0.004261057484 -0.020240024285 0.704135742188 -9.819580078125 1.106499023438
687 1540822817.889755725861 -0.061785333129 -0.004261057484 -0.020240024285 0.708925781250 -9.824370117188 1.111289062500
688 1540822817.890756607056 -0.061785333129 -0.003195793048 -0.019174759849 0.708925781250 -9.833950195313 1.120869140625
689 1540822817.891757726669 -0.060720068693 -0.003195793048 -0.019174759849 0.704135742188 -9.838740234375 1.116079101563
690 1540822817.892758607864 -0.060720068693 -0.004261057484 -0.020240024285 0.689765625000 -9.838740234375 1.106499023438
691 1540822817.893759727478 -0.061785333129 -0.004261057484 -0.020240024285 0.675395507813 -9.848320312500 1.096918945313
692 1540822817.894760608673 -0.061785333129 -0.004261057484 -0.020240024285 0.665815429688 -9.848320312500 1.096918945313
693 1540822817.895761728287 -0.061785333129 -0.004261057484 -0.020240024285 0.661025390625 -9.838740234375 1.106499023438
694 1540822817.896762609482 -0.060720068693 -0.004261057484 -0.020240024285 0.656235351563 -9.829160156250 1.101708984375
695 1540822817.897763729095 -0.060720068693 -0.004261057484 -0.020240024285 0.651445312500 -9.814790039063 1.096918945313
696 1540822817.898764610291 -0.060720068693 -0.004261057484 -0.020240024285 0.665815429688 -9.819580078125 1.092128906250
697 1540822817.899766683578 -0.061785333129 -0.003195793048 -0.020240024285 0.675395507813 -9.833950195313 1.087338867187
698 1540822817.900767803192 -0.061785333129 -0.003195793048 -0.020240024285 0.684975585938 -9.829160156250 1.092128906250
699 1540822817.901768684387 -0.061785333129 -0.003195793048 -0.020240024285 0.684975585938 -9.814790039063 1.106499023438
700 1540822817.902769804001 -0.060720068693 -0.003195793048 -0.020240024285 0.689765625000 -9.814790039063 1.120869140625
701 1540822817.903770685196 -0.060720068693 -0.003195793048 -0.020240024285 0.694555664063 -9.810000000000 1.111289062500
702 1540822817.904771804810 -0.060720068693 -0.003195793048 -0.020240024285 0.694555664063 -9.810000000000 1.096918945313
703 1540822817.905772686005 -0.059654804257 -0.003195793048 -0.020240024285 0.699345703125 -9.805209960937 1.092128906250
704 1540822817.906773805618 -0.059654804257 -0.004261057484 -0.020240024285 0.704135742188 -9.805209960937 1.096918945313
705 1540822817.907774686813 -0.059654804257 -0.003195793048 -0.020240024285 0.699345703125 -9.814790039063 1.106499023438
706 1540822817.908775806427 -0.059654804257 -0.003195793048 -0.020240024285 0.694555664063 -9.819580078125 1.106499023438
707 1540822817.909776687622 -0.059654804257 -0.003195793048 -0.020240024285 0.694555664063 -9.824370117188 1.101708984375
708 1540822817.910777807236 -0.059654804257 -0.003195793048 -0.020240024285 0.684975585938 -9.824370117188 1.106499023438
709 1540822817.911778688431 -0.060720068693 -0.003195793048 -0.019174759849 0.675395507813 -9.819580078125 1.106499023438
710 1540822817.912779808044 -0.060720068693 -0.003195793048 -0.019174759849 0.680185546875 -9.819580078125 1.106499023438
711 1540822817.913780689240 -0.061785333129 -0.004261057484 -0.019174759849 0.684975585938 -9.819580078125 1.116079101563
712 1540822817.914781808853 -0.061785333129 -0.004261057484 -0.020240024285 0.684975585938 -9.829160156250 1.120869140625
713 1540822817.915783643723 -0.061785333129 -0.004261057484 -0.020240024285 0.689765625000 -9.824370117188 1.116079101563
714 1540822817.916784763336 -0.060720068693 -0.004261057484 -0.020240024285 0.689765625000 -9.819580078125 1.106499023438
715 1540822817.917785644531 -0.060720068693 -0.004261057484 -0.019174759849 0.694555664063 -9.829160156250 1.092128906250
716 1540822817.918786764145 -0.061785333129 -0.004261057484 -0.019174759849 0.699345703125 -9.833950195313 1.087338867187
717 1540822817.919787645340 -0.061785333129 -0.004261057484 -0.019174759849 0.704135742188 -9.833950195313 1.092128906250
718 1540822817.920788764954 -0.061785333129 -0.004261057484 -0.019174759849 0.708925781250 -9.838740234375 1.101708984375
719 1540822817.921789646149 -0.061785333129 -0.004261057484 -0.019174759849 0.708925781250 -9.838740234375 1.096918945313
720 1540822817.922790765762 -0.060720068693 -0.004261057484 -0.020240024285 0.699345703125 -9.838740234375 1.096918945313
721 1540822817.923791646957 -0.060720068693 -0.004261057484 -0.020240024285 0.694555664063 -9.838740234375 1.096918945313
722 1540822817.924792766571 -0.059654804257 -0.004261057484 -0.020240024285 0.699345703125 -9.833950195313 1.106499023438
723 1540822817.925793647766 -0.060720068693 -0.004261057484 -0.020240024285 0.699345703125 -9.829160156250 1.101708984375
724 1540822817.926794767380 -0.060720068693 -0.004261057484 -0.021305288721 0.694555664063 -9.819580078125 1.087338867187
725 1540822817.927795648575 -0.061785333129 -0.004261057484 -0.020240024285 0.684975585938 -9.819580078125 1.082548828125
726 1540822817.928796768188 -0.061785333129 -0.004261057484 -0.020240024285 0.670605468750 -9.833950195313 1.077758789062
727 1540822817.929797649384 -0.062850597565 -0.004261057484 -0.020240024285 0.656235351563 -9.843530273437 1.087338867187
728 1540822817.930798768997 -0.062850597565 -0.005326322180 -0.020240024285 0.656235351563 -9.853110351563 1.096918945313
729 1540822817.931799650192 -0.063915862001 -0.005326322180 -0.020240024285 0.646655273438 -9.853110351563 1.096918945313
730 1540822817.932800769806 -0.062850597565 -0.005326322180 -0.020240024285 0.641865234375 -9.843530273437 1.092128906250
731 1540822817.933802604675 -0.061785333129 -0.004261057484 -0.020240024285 0.641865234375 -9.833950195313 1.092128906250
732 1540822817.934803724289 -0.061785333129 -0.004261057484 -0.020240024285 0.641865234375 -9.824370117188 1.096918945313
733 1540822817.935804605484 -0.061785333129 -0.003195793048 -0.020240024285 0.656235351563 -9.819580078125 1.096918945313
734 1540822817.936805725098 -0.061785333129 -0.003195793048 -0.020240024285 0.661025390625 -9.819580078125 1.092128906250
735 1540822817.937806606293 -0.061785333129 -0.003195793048 -0.020240024285 0.661025390625 -9.819580078125 1.096918945313
736 1540822817.938806772232 -0.061785333129 -0.003195793048 -0.020240024285 0.656235351563 -9.824370117188 1.101708984375
737 1540822817.939807653427 -0.061785333129 -0.003195793048 -0.020240024285 0.656235351563 -9.819580078125 1.106499023438
738 1540822817.940808773041 -0.061785333129 -0.004261057484 -0.020240024285 0.661025390625 -9.814790039063 1.106499023438
739 1540822817.941809654236 -0.061785333129 -0.004261057484 -0.020240024285 0.675395507813 -9.810000000000 1.096918945313
740 1540822817.942810773849 -0.061785333129 -0.004261057484 -0.020240024285 0.684975585938 -9.814790039063 1.087338867187
741 1540822817.943811655045 -0.060720068693 -0.003195793048 -0.021305288721 0.684975585938 -9.824370117188 1.096918945313
742 1540822817.944812774658 -0.060720068693 -0.003195793048 -0.020240024285 0.689765625000 -9.838740234375 1.116079101563
743 1540822817.945813655853 -0.060720068693 -0.003195793048 -0.020240024285 0.684975585938 -9.843530273437 1.125659179687
744 1540822817.946814775467 -0.059654804257 -0.003195793048 -0.020240024285 0.680185546875 -9.838740234375 1.125659179687
745 1540822817.947816610336 -0.059654804257 -0.004261057484 -0.020240024285 0.675395507813 -9.824370117188 1.125659179687
746 1540822817.948817729950 -0.059654804257 -0.004261057484 -0.019174759849 0.675395507813 -9.814790039063 1.130449218750
747 1540822817.949818611145 -0.059654804257 -0.004261057484 -0.019174759849 0.670605468750 -9.805209960937 1.125659179687
748 1540822817.950819730759 -0.060720068693 -0.004261057484 -0.018109495413 0.656235351563 -9.800419921875 1.120869140625
749 1540822817.951820611954 -0.060720068693 -0.004261057484 -0.018109495413 0.646655273438 -9.810000000000 1.135239257813
750 1540822817.952821731567 -0.060720068693 -0.005326322180 -0.019174759849 0.646655273438 -9.814790039063 1.144819335938
751 1540822817.953822612762 -0.061785333129 -0.005326322180 -0.019174759849 0.646655273438 -9.810000000000 1.140029296875
752 1540822817.954823732376 -0.061785333129 -0.004261057484 -0.019174759849 0.651445312500 -9.805209960937 1.130449218750
753 1540822817.955824613571 -0.061785333129 -0.004261057484 -0.019174759849 0.646655273438 -9.805209960937 1.120869140625
754 1540822817.956825733185 -0.061785333129 -0.005326322180 -0.019174759849 0.637075195313 -9.805209960937 1.111289062500
755 1540822817.957826614380 -0.061785333129 -0.004261057484 -0.019174759849 0.632285156250 -9.819580078125 1.101708984375
756 1540822817.958827733994 -0.061785333129 -0.004261057484 -0.019174759849 0.627495117188 -9.829160156250 1.092128906250
757 1540822817.959828615189 -0.061785333129 -0.004261057484 -0.019174759849 0.627495117188 -9.829160156250 1.092128906250
758 1540822817.960829734802 -0.061785333129 -0.004261057484 -0.019174759849 0.641865234375 -9.819580078125 1.092128906250
759 1540822817.961830615997 -0.061785333129 -0.004261057484 -0.019174759849 0.656235351563 -9.814790039063 1.082548828125
760 1540822817.962831735611 -0.060720068693 -0.004261057484 -0.020240024285 0.675395507813 -9.814790039063 1.092128906250
761 1540822817.963832616806 -0.061785333129 -0.004261057484 -0.021305288721 0.684975585938 -9.810000000000 1.111289062500
762 1540822817.964834690094 -0.062850597565 -0.003195793048 -0.022370551076 0.684975585938 -9.795629882813 1.116079101563
763 1540822817.965835809708 -0.062850597565 -0.003195793048 -0.022370551076 0.684975585938 -9.786049804688 1.116079101563
764 1540822817.966836690903 -0.062850597565 -0.002130528742 -0.022370551076 0.680185546875 -9.786049804688 1.120869140625
765 1540822817.967837810516 -0.061785333129 -0.002130528742 -0.021305288721 0.675395507813 -9.790839843750 1.120869140625
766 1540822817.968838691711 -0.061785333129 -0.002130528742 -0.021305288721 0.670605468750 -9.800419921875 1.116079101563
767 1540822817.969839572906 -0.061785333129 -0.002130528742 -0.021305288721 0.661025390625 -9.805209960937 1.116079101563
768 1540822817.970840692520 -0.062850597565 -0.002130528742 -0.022370551076 0.661025390625 -9.810000000000 1.111289062500
769 1540822817.971841573715 -0.062850597565 -0.003195793048 -0.022370551076 0.661025390625 -9.814790039063 1.111289062500
770 1540822817.972842693329 -0.062850597565 -0.003195793048 -0.021305288721 0.656235351563 -9.814790039063 1.116079101563
771 1540822817.973843574524 -0.062850597565 -0.004261057484 -0.020240024285 0.651445312500 -9.814790039063 1.106499023438
772 1540822817.974844694138 -0.062850597565 -0.004261057484 -0.020240024285 0.646655273438 -9.819580078125 1.106499023438
773 1540822817.975845575333 -0.062850597565 -0.004261057484 -0.020240024285 0.637075195313 -9.824370117188 1.116079101563
774 1540822817.976846694946 -0.062850597565 -0.003195793048 -0.020240024285 0.641865234375 -9.819580078125 1.125659179687
775 1540822817.977847576141 -0.062850597565 -0.003195793048 -0.020240024285 0.656235351563 -9.819580078125 1.130449218750
776 1540822817.978848695755 -0.062850597565 -0.003195793048 -0.019174759849 0.656235351563 -9.824370117188 1.130449218750
777 1540822817.979849576950 -0.062850597565 -0.003195793048 -0.019174759849 0.656235351563 -9.824370117188 1.120869140625
778 1540822817.980850696564 -0.062850597565 -0.002130528742 -0.019174759849 0.656235351563 -9.829160156250 1.106499023438
779 1540822817.981852769852 -0.061785333129 -0.002130528742 -0.019174759849 0.665815429688 -9.838740234375 1.096918945313
780 1540822817.982853651047 -0.061785333129 -0.002130528742 -0.019174759849 0.680185546875 -9.838740234375 1.101708984375
781 1540822817.983854770660 -0.061785333129 -0.001065264371 -0.019174759849 0.684975585938 -9.829160156250 1.111289062500
782 1540822817.984855651855 -0.061785333129 -0.001065264371 -0.019174759849 0.684975585938 -9.833950195313 1.116079101563
783 1540822817.985856771469 -0.061785333129 -0.002130528742 -0.019174759849 0.684975585938 -9.838740234375 1.116079101563
784 1540822817.986857652664 -0.061785333129 -0.002130528742 -0.020240024285 0.684975585938 -9.838740234375 1.111289062500
785 1540822817.987858772278 -0.061785333129 -0.002130528742 -0.020240024285 0.670605468750 -9.833950195313 1.111289062500
786 1540822817.988859653473 -0.060720068693 -0.002130528742 -0.020240024285 0.665815429688 -9.833950195313 1.111289062500
787 1540822817.989860773087 -0.060720068693 -0.002130528742 -0.020240024285 0.665815429688 -9.833950195313 1.120869140625
788 1540822817.990861654282 -0.060720068693 -0.002130528742 -0.019174759849 0.656235351563 -9.833950195313 1.125659179687
789 1540822817.991862773895 -0.060720068693 -0.002130528742 -0.019174759849 0.641865234375 -9.829160156250 1.130449218750
790 1540822817.992863655090 -0.061785333129 -0.002130528742 -0.020240024285 0.632285156250 -9.829160156250 1.135239257813
791 1540822817.993864774704 -0.061785333129 -0.003195793048 -0.020240024285 0.641865234375 -9.833950195313 1.135239257813
792 1540822817.994865655899 -0.061785333129 -0.003195793048 -0.020240024285 0.661025390625 -9.838740234375 1.125659179687
793 1540822817.995866775513 -0.062850597565 -0.003195793048 -0.020240024285 0.670605468750 -9.833950195313 1.116079101563
794 1540822817.996867656708 -0.062850597565 -0.003195793048 -0.020240024285 0.665815429688 -9.824370117188 1.106499023438
795 1540822817.997868776321 -0.062850597565 -0.003195793048 -0.020240024285 0.670605468750 -9.810000000000 1.092128906250
796 1540822817.998869657516 -0.062850597565 -0.003195793048 -0.019174759849 0.680185546875 -9.800419921875 1.077758789062
797 1540822817.999871730804 -0.062850597565 -0.003195793048 -0.019174759849 0.680185546875 -9.790839843750 1.068178710938
798 1540822818.000872612000 -0.062850597565 -0.003195793048 -0.020240024285 0.684975585938 -9.790839843750 1.072968750000
799 1540822818.001873731613 -0.061785333129 -0.003195793048 -0.020240024285 0.684975585938 -9.795629882813 1.072968750000
800 1540822818.002874612808 -0.061785333129 -0.003195793048 -0.020240024285 0.680185546875 -9.800419921875 1.068178710938
801 1540822818.003875732422 -0.062850597565 -0.003195793048 -0.020240024285 0.684975585938 -9.805209960937 1.077758789062
802 1540822818.004876613617 -0.062850597565 -0.003195793048 -0.021305288721 0.689765625000 -9.810000000000 1.087338867187
803 1540822818.005877733231 -0.062850597565 -0.003195793048 -0.021305288721 0.689765625000 -9.814790039063 1.096918945313
804 1540822818.006878614426 -0.061785333129 -0.003195793048 -0.021305288721 0.684975585938 -9.819580078125 1.096918945313
805 1540822818.007879734039 -0.061785333129 -0.003195793048 -0.021305288721 0.670605468750 -9.824370117188 1.096918945313
806 1540822818.008880615234 -0.061785333129 -0.003195793048 -0.021305288721 0.665815429688 -9.833950195313 1.106499023438
807 1540822818.009881734848 -0.061785333129 -0.003195793048 -0.021305288721 0.656235351563 -9.833950195313 1.106499023438
808 1540822818.010882616043 -0.062850597565 -0.004261057484 -0.021305288721 0.646655273438 -9.833950195313 1.092128906250
809 1540822818.011883735657 -0.062850597565 -0.003195793048 -0.021305288721 0.632285156250 -9.829160156250 1.092128906250
810 1540822818.012884616852 -0.062850597565 -0.003195793048 -0.020240024285 0.622705078125 -9.829160156250 1.096918945313
811 1540822818.013885736465 -0.062850597565 -0.003195793048 -0.020240024285 0.637075195313 -9.824370117188 1.106499023438
812 1540822818.014886617661 -0.062850597565 -0.003195793048 -0.019174759849 0.651445312500 -9.824370117188 1.101708984375
813 1540822818.015888690948 -0.062850597565 -0.003195793048 -0.018109495413 0.656235351563 -9.819580078125 1.096918945313
814 1540822818.016889810562 -0.062850597565 -0.003195793048 -0.018109495413 0.656235351563 -9.824370117188 1.096918945313
815 1540822818.017890691757 -0.062850597565 -0.003195793048 -0.019174759849 0.656235351563 -9.829160156250 1.092128906250
816 1540822818.018891572952 -0.062850597565 -0.003195793048 -0.019174759849 0.661025390625 -9.829160156250 1.092128906250
817 1540822818.019892692566 -0.061785333129 -0.003195793048 -0.018109495413 0.670605468750 -9.838740234375 1.096918945313
818 1540822818.020893573761 -0.061785333129 -0.003195793048 -0.018109495413 0.675395507813 -9.838740234375 1.120869140625
819 1540822818.021894693375 -0.060720068693 -0.002130528742 -0.018109495413 0.684975585938 -9.838740234375 1.130449218750
820 1540822818.022895574570 -0.060720068693 -0.002130528742 -0.018109495413 0.689765625000 -9.838740234375 1.135239257813
821 1540822818.023896694183 -0.060720068693 -0.002130528742 -0.018109495413 0.684975585938 -9.843530273437 1.135239257813
822 1540822818.024897575378 -0.060720068693 -0.002130528742 -0.019174759849 0.680185546875 -9.843530273437 1.125659179687
823 1540822818.025898694992 -0.060720068693 -0.002130528742 -0.019174759849 0.675395507813 -9.833950195313 1.125659179687
824 1540822818.026899576187 -0.060720068693 -0.002130528742 -0.020240024285 0.670605468750 -9.833950195313 1.125659179687
825 1540822818.027900695801 -0.061785333129 -0.002130528742 -0.020240024285 0.675395507813 -9.833950195313 1.120869140625
826 1540822818.028901576996 -0.061785333129 -0.003195793048 -0.020240024285 0.675395507813 -9.829160156250 1.120869140625
827 1540822818.029902696609 -0.061785333129 -0.003195793048 -0.020240024285 0.665815429688 -9.829160156250 1.125659179687
828 1540822818.030903577805 -0.062850597565 -0.003195793048 -0.020240024285 0.670605468750 -9.833950195313 1.130449218750
829 1540822818.031904697418 -0.061785333129 -0.003195793048 -0.020240024285 0.670605468750 -9.833950195313 1.130449218750
830 1540822818.032906770706 -0.061785333129 -0.003195793048 -0.020240024285 0.661025390625 -9.833950195313 1.135239257813
831 1540822818.033906698227 -0.061785333129 -0.003195793048 -0.019174759849 0.661025390625 -9.838740234375 1.125659179687
832 1540822818.034907579422 -0.061785333129 -0.003195793048 -0.019174759849 0.665815429688 -9.829160156250 1.111289062500
833 1540822818.035908699036 -0.061785333129 -0.003195793048 -0.018109495413 0.665815429688 -9.819580078125 1.111289062500
834 1540822818.036909580231 -0.061785333129 -0.003195793048 -0.019174759849 0.670605468750 -9.814790039063 1.101708984375
835 1540822818.037910699844 -0.061785333129 -0.003195793048 -0.019174759849 0.680185546875 -9.819580078125 1.101708984375
836 1540822818.038911581039 -0.061785333129 -0.003195793048 -0.019174759849 0.684975585938 -9.824370117188 1.111289062500
837 1540822818.039912700653 -0.061785333129 -0.003195793048 -0.019174759849 0.689765625000 -9.824370117188 1.106499023438
838 1540822818.040913581848 -0.061785333129 -0.002130528742 -0.019174759849 0.694555664063 -9.824370117188 1.101708984375
839 1540822818.041914701462 -0.061785333129 -0.002130528742 -0.020240024285 0.704135742188 -9.829160156250 1.116079101563
840 1540822818.042915582657 -0.061785333129 -0.003195793048 -0.020240024285 0.713715820313 -9.833950195313 1.130449218750
841 1540822818.043916702271 -0.061785333129 -0.002130528742 -0.020240024285 0.718505859375 -9.833950195313 1.149609375000
842 1540822818.044917583466 -0.061785333129 -0.002130528742 -0.020240024285 0.713715820313 -9.838740234375 1.159189453125
843 1540822818.045918703079 -0.061785333129 -0.002130528742 -0.020240024285 0.708925781250 -9.848320312500 1.154399414063
844 1540822818.046920776367 -0.060720068693 -0.002130528742 -0.020240024285 0.699345703125 -9.848320312500 1.144819335938
845 1540822818.047921657562 -0.061785333129 -0.002130528742 -0.020240024285 0.689765625000 -9.838740234375 1.140029296875
846 1540822818.048922777176 -0.061785333129 -0.003195793048 -0.021305288721 0.680185546875 -9.829160156250 1.135239257813
847 1540822818.049923658371 -0.062850597565 -0.003195793048 -0.021305288721 0.680185546875 -9.824370117188 1.144819335938
848 1540822818.050924777985 -0.062850597565 -0.004261057484 -0.021305288721 0.680185546875 -9.819580078125 1.144819335938
849 1540822818.051925659180 -0.062850597565 -0.004261057484 -0.020240024285 0.689765625000 -9.814790039063 1.144819335938
850 1540822818.052926778793 -0.061785333129 -0.004261057484 -0.020240024285 0.689765625000 -9.810000000000 1.140029296875
851 1540822818.053927659988 -0.061785333129 -0.004261057484 -0.019174759849 0.680185546875 -9.814790039063 1.140029296875
852 1540822818.054928779602 -0.060720068693 -0.004261057484 -0.019174759849 0.675395507813 -9.824370117188 1.135239257813
853 1540822818.055929660797 -0.061785333129 -0.004261057484 -0.019174759849 0.675395507813 -9.833950195313 1.135239257813
854 1540822818.056930780411 -0.061785333129 -0.003195793048 -0.019174759849 0.684975585938 -9.833950195313 1.135239257813
855 1540822818.057931661606 -0.061785333129 -0.003195793048 -0.019174759849 0.689765625000 -9.824370117188 1.125659179687
856 1540822818.058932781219 -0.061785333129 -0.004261057484 -0.019174759849 0.689765625000 -9.814790039063 1.116079101563
857 1540822818.059933662415 -0.061785333129 -0.004261057484 -0.018109495413 0.694555664063 -9.814790039063 1.106499023438
858 1540822818.060934782028 -0.061785333129 -0.003195793048 -0.018109495413 0.694555664063 -9.814790039063 1.101708984375
859 1540822818.061935663223 -0.061785333129 -0.003195793048 -0.018109495413 0.689765625000 -9.810000000000 1.106499023438
860 1540822818.062936782837 -0.061785333129 -0.002130528742 -0.019174759849 0.684975585938 -9.814790039063 1.120869140625
861 1540822818.063938617706 -0.061785333129 -0.002130528742 -0.019174759849 0.675395507813 -9.814790039063 1.140029296875
862 1540822818.064939737320 -0.061785333129 -0.003195793048 -0.020240024285 0.670605468750 -9.814790039063 1.144819335938
863 1540822818.065940618515 -0.061785333129 -0.003195793048 -0.020240024285 0.665815429688 -9.810000000000 1.144819335938
864 1540822818.066941738129 -0.061785333129 -0.003195793048 -0.021305288721 0.661025390625 -9.805209960937 1.140029296875
865 1540822818.067942619324 -0.061785333129 -0.003195793048 -0.022370551076 0.661025390625 -9.810000000000 1.125659179687
866 1540822818.068943738937 -0.061785333129 -0.003195793048 -0.022370551076 0.665815429688 -9.814790039063 1.116079101563
867 1540822818.069944620132 -0.061785333129 -0.003195793048 -0.021305288721 0.665815429688 -9.819580078125 1.111289062500
868 1540822818.070945739746 -0.061785333129 -0.003195793048 -0.020240024285 0.665815429688 -9.819580078125 1.106499023438
869 1540822818.071946620941 -0.061785333129 -0.003195793048 -0.020240024285 0.670605468750 -9.819580078125 1.101708984375
870 1540822818.072947740555 -0.061785333129 -0.004261057484 -0.020240024285 0.665815429688 -9.829160156250 1.101708984375
871 1540822818.073948621750 -0.061785333129 -0.004261057484 -0.020240024285 0.641865234375 -9.829160156250 1.101708984375
872 1540822818.074949741364 -0.061785333129 -0.004261057484 -0.020240024285 0.632285156250 -9.819580078125 1.106499023438
873 1540822818.075950622559 -0.061785333129 -0.004261057484 -0.020240024285 0.641865234375 -9.810000000000 1.101708984375
874 1540822818.076951742172 -0.061785333129 -0.003195793048 -0.020240024285 0.656235351563 -9.810000000000 1.092128906250
875 1540822818.077952623367 -0.061785333129 -0.003195793048 -0.019174759849 0.680185546875 -9.810000000000 1.096918945313
876 1540822818.078953742981 -0.060720068693 -0.003195793048 -0.019174759849 0.689765625000 -9.805209960937 1.096918945313
877 1540822818.079954624176 -0.060720068693 -0.003195793048 -0.019174759849 0.689765625000 -9.800419921875 1.106499023438
878 1540822818.080956697464 -0.060720068693 -0.003195793048 -0.019174759849 0.689765625000 -9.800419921875 1.116079101563
879 1540822818.081957578659 -0.060720068693 -0.003195793048 -0.020240024285 0.694555664063 -9.805209960937 1.125659179687
880 1540822818.082958698273 -0.060720068693 -0.003195793048 -0.020240024285 0.689765625000 -9.814790039063 1.140029296875
881 1540822818.083959579468 -0.060720068693 -0.002130528742 -0.021305288721 0.684975585938 -9.824370117188 1.135239257813
882 1540822818.084960699081 -0.060720068693 -0.001065264371 -0.021305288721 0.694555664063 -9.838740234375 1.120869140625
883 1540822818.085961580276 -0.061785333129 -0.002130528742 -0.021305288721 0.699345703125 -9.843530273437 1.130449218750
884 1540822818.086962699890 -0.061785333129 -0.003195793048 -0.021305288721 0.694555664063 -9.843530273437 1.144819335938
885 1540822818.087963581085 -0.061785333129 -0.003195793048 -0.021305288721 0.694555664063 -9.843530273437 1.154399414063
886 1540822818.088964700699 -0.062850597565 -0.003195793048 -0.020240024285 0.684975585938 -9.843530273437 1.163979492187
887 1540822818.089965581894 -0.062850597565 -0.003195793048 -0.019174759849 0.675395507813 -9.829160156250 1.168769531250
888 1540822818.090966701508 -0.062850597565 -0.003195793048 -0.019174759849 0.670605468750 -9.829160156250 1.168769531250
889 1540822818.091967582703 -0.063915862001 -0.003195793048 -0.018109495413 0.675395507813 -9.829160156250 1.163979492187
890 1540822818.092968702316 -0.063915862001 -0.003195793048 -0.019174759849 0.670605468750 -9.833950195313 1.168769531250
891 1540822818.093969583511 -0.063915862001 -0.004261057484 -0.019174759849 0.661025390625 -9.824370117188 1.159189453125
892 1540822818.094970703125 -0.063915862001 -0.004261057484 -0.019174759849 0.661025390625 -9.810000000000 1.135239257813
893 1540822818.095971584320 -0.063915862001 -0.004261057484 -0.019174759849 0.665815429688 -9.805209960937 1.120869140625
894 1540822818.096972703934 -0.063915862001 -0.004261057484 -0.019174759849 0.665815429688 -9.805209960937 1.106499023438
895 1540822818.097974777222 -0.062850597565 -0.003195793048 -0.020240024285 0.665815429688 -9.800419921875 1.087338867187
896 1540822818.098975658417 -0.062850597565 -0.003195793048 -0.020240024285 0.675395507813 -9.805209960937 1.082548828125
897 1540822818.099976778030 -0.061785333129 -0.003195793048 -0.020240024285 0.684975585938 -9.810000000000 1.096918945313
898 1540822818.100977659225 -0.061785333129 -0.003195793048 -0.020240024285 0.694555664063 -9.814790039063 1.111289062500
899 1540822818.101978778839 -0.061785333129 -0.003195793048 -0.020240024285 0.689765625000 -9.819580078125 1.111289062500
900 1540822818.102979660034 -0.060720068693 -0.003195793048 -0.020240024285 0.689765625000 -9.814790039063 1.101708984375
901 1540822818.103980779648 -0.060720068693 -0.003195793048 -0.020240024285 0.694555664063 -9.805209960937 1.106499023438
902 1540822818.104981660843 -0.061785333129 -0.003195793048 -0.019174759849 0.699345703125 -9.810000000000 1.120869140625
903 1540822818.105982780457 -0.060720068693 -0.002130528742 -0.020240024285 0.689765625000 -9.819580078125 1.125659179687
904 1540822818.106983661652 -0.060720068693 -0.002130528742 -0.020240024285 0.699345703125 -9.824370117188 1.135239257813
905 1540822818.107984781265 -0.060720068693 -0.003195793048 -0.020240024285 0.704135742188 -9.829160156250 1.140029296875
906 1540822818.108985662460 -0.061785333129 -0.003195793048 -0.020240024285 0.699345703125 -9.833950195313 1.135239257813
907 1540822818.109986782074 -0.061785333129 -0.003195793048 -0.020240024285 0.684975585938 -9.843530273437 1.130449218750
908 1540822818.110987663269 -0.061785333129 -0.003195793048 -0.020240024285 0.675395507813 -9.853110351563 1.120869140625
909 1540822818.111988782883 -0.061785333129 -0.003195793048 -0.020240024285 0.665815429688 -9.853110351563 1.111289062500
910 1540822818.112989664078 -0.061785333129 -0.003195793048 -0.020240024285 0.661025390625 -9.848320312500 1.116079101563
911 1540822818.113990783691 -0.061785333129 -0.004261057484 -0.020240024285 0.651445312500 -9.848320312500 1.120869140625
912 1540822818.114992618561 -0.061785333129 -0.004261057484 -0.019174759849 0.646655273438 -9.848320312500 1.125659179687
913 1540822818.115993738174 -0.060720068693 -0.004261057484 -0.019174759849 0.646655273438 -9.848320312500 1.120869140625
914 1540822818.116994619370 -0.060720068693 -0.004261057484 -0.019174759849 0.646655273438 -9.848320312500 1.111289062500
915 1540822818.117995738983 -0.060720068693 -0.004261057484 -0.020240024285 0.651445312500 -9.843530273437 1.101708984375
916 1540822818.118996620178 -0.060720068693 -0.004261057484 -0.020240024285 0.656235351563 -9.843530273437 1.101708984375
917 1540822818.119997739792 -0.059654804257 -0.003195793048 -0.020240024285 0.661025390625 -9.848320312500 1.101708984375
918 1540822818.120998620987 -0.059654804257 -0.003195793048 -0.020240024285 0.670605468750 -9.848320312500 1.106499023438
919 1540822818.121999740601 -0.059654804257 -0.004261057484 -0.020240024285 0.684975585938 -9.848320312500 1.096918945313
920 1540822818.123000621796 -0.059654804257 -0.003195793048 -0.020240024285 0.694555664063 -9.838740234375 1.096918945313
921 1540822818.124001741409 -0.059654804257 -0.002130528742 -0.020240024285 0.689765625000 -9.829160156250 1.106499023438
922 1540822818.125002622604 -0.060720068693 -0.002130528742 -0.020240024285 0.689765625000 -9.824370117188 1.120869140625
923 1540822818.126003742218 -0.060720068693 -0.002130528742 -0.020240024285 0.684975585938 -9.814790039063 1.120869140625
924 1540822818.127004623413 -0.060720068693 -0.002130528742 -0.020240024285 0.689765625000 -9.805209960937 1.111289062500
925 1540822818.128005743027 -0.061785333129 -0.003195793048 -0.021305288721 0.699345703125 -9.795629882813 1.111289062500
926 1540822818.129006624222 -0.061785333129 -0.003195793048 -0.021305288721 0.704135742188 -9.795629882813 1.116079101563
927 1540822818.130007743835 -0.061785333129 -0.004261057484 -0.021305288721 0.694555664063 -9.805209960937 1.111289062500
928 1540822818.131008625031 -0.061785333129 -0.004261057484 -0.021305288721 0.680185546875 -9.819580078125 1.125659179687
929 1540822818.132009744644 -0.062850597565 -0.004261057484 -0.020240024285 0.670605468750 -9.829160156250 1.144819335938
930 1540822818.133010625839 -0.063915862001 -0.004261057484 -0.019174759849 0.670605468750 -9.829160156250 1.144819335938
931 1540822818.134011745453 -0.063915862001 -0.004261057484 -0.019174759849 0.675395507813 -9.829160156250 1.135239257813
932 1540822818.135012626648 -0.062850597565 -0.004261057484 -0.019174759849 0.675395507813 -9.824370117188 1.130449218750
933 1540822818.136013746262 -0.062850597565 -0.004261057484 -0.019174759849 0.675395507813 -9.829160156250 1.120869140625
934 1540822818.137014627457 -0.062850597565 -0.003195793048 -0.019174759849 0.680185546875 -9.833950195313 1.101708984375
935 1540822818.138015747070 -0.061785333129 -0.003195793048 -0.019174759849 0.684975585938 -9.829160156250 1.092128906250
936 1540822818.139016628265 -0.061785333129 -0.003195793048 -0.019174759849 0.694555664063 -9.824370117188 1.096918945313
937 1540822818.140017747879 -0.061785333129 -0.003195793048 -0.019174759849 0.689765625000 -9.829160156250 1.096918945313
938 1540822818.141018629074 -0.060720068693 -0.003195793048 -0.019174759849 0.689765625000 -9.838740234375 1.087338867187
939 1540822818.142019748688 -0.060720068693 -0.002130528742 -0.019174759849 0.689765625000 -9.843530273437 1.082548828125
940 1540822818.143020629883 -0.060720068693 -0.002130528742 -0.020240024285 0.694555664063 -9.833950195313 1.087338867187
941 1540822818.144021749496 -0.060720068693 -0.002130528742 -0.020240024285 0.694555664063 -9.824370117188 1.096918945313
942 1540822818.145022630692 -0.060720068693 -0.003195793048 -0.020240024285 0.684975585938 -9.819580078125 1.101708984375
943 1540822818.146024703979 -0.060720068693 -0.003195793048 -0.020240024285 0.675395507813 -9.819580078125 1.092128906250
944 1540822818.147025585175 -0.060720068693 -0.003195793048 -0.020240024285 0.665815429688 -9.824370117188 1.092128906250
945 1540822818.148026704788 -0.061785333129 -0.002130528742 -0.020240024285 0.656235351563 -9.829160156250 1.096918945313
946 1540822818.149027585983 -0.061785333129 -0.002130528742 -0.020240024285 0.646655273438 -9.824370117188 1.101708984375
947 1540822818.150028705597 -0.062850597565 -0.002130528742 -0.019174759849 0.637075195313 -9.814790039063 1.111289062500
948 1540822818.151029586792 -0.062850597565 -0.003195793048 -0.019174759849 0.632285156250 -9.814790039063 1.106499023438
949 1540822818.152030706406 -0.062850597565 -0.003195793048 -0.019174759849 0.637075195313 -9.824370117188 1.092128906250
950 1540822818.153031587601 -0.062850597565 -0.004261057484 -0.019174759849 0.641865234375 -9.833950195313 1.092128906250
951 1540822818.154032707214 -0.062850597565 -0.004261057484 -0.019174759849 0.646655273438 -9.833950195313 1.101708984375
952 1540822818.155033588409 -0.063915862001 -0.004261057484 -0.019174759849 0.656235351563 -9.833950195313 1.096918945313
953 1540822818.156034708023 -0.063915862001 -0.004261057484 -0.019174759849 0.665815429688 -9.838740234375 1.092128906250
954 1540822818.157035589218 -0.062850597565 -0.003195793048 -0.019174759849 0.665815429688 -9.833950195313 1.087338867187
955 1540822818.158036708832 -0.062850597565 -0.003195793048 -0.018109495413 0.665815429688 -9.833950195313 1.092128906250
956 1540822818.159037590027 -0.062850597565 -0.003195793048 -0.018109495413 0.665815429688 -9.838740234375 1.101708984375
957 1540822818.160038709641 -0.062850597565 -0.003195793048 -0.018109495413 0.675395507813 -9.833950195313 1.101708984375
958 1540822818.161039590836 -0.062850597565 -0.003195793048 -0.018109495413 0.689765625000 -9.838740234375 1.111289062500
959 1540822818.162040710449 -0.062850597565 -0.002130528742 -0.019174759849 0.684975585938 -9.853110351563 1.125659179687
960 1540822818.163041591644 -0.062850597565 -0.002130528742 -0.019174759849 0.675395507813 -9.848320312500 1.135239257813
961 1540822818.164043664932 -0.061785333129 -0.002130528742 -0.019174759849 0.680185546875 -9.838740234375 1.135239257813
962 1540822818.165044784546 -0.061785333129 -0.002130528742 -0.019174759849 0.684975585938 -9.829160156250 1.130449218750
963 1540822818.166045665741 -0.060720068693 -0.002130528742 -0.019174759849 0.684975585938 -9.819580078125 1.125659179687
964 1540822818.167046785355 -0.060720068693 -0.002130528742 -0.019174759849 0.684975585938 -9.814790039063 1.125659179687
965 1540822818.168047666550 -0.061785333129 -0.002130528742 -0.019174759849 0.670605468750 -9.814790039063 1.125659179687
966 1540822818.169048786163 -0.061785333129 -0.003195793048 -0.019174759849 0.661025390625 -9.819580078125 1.116079101563
967 1540822818.170049667358 -0.061785333129 -0.003195793048 -0.019174759849 0.661025390625 -9.819580078125 1.116079101563
968 1540822818.171050786972 -0.061785333129 -0.003195793048 -0.019174759849 0.675395507813 -9.819580078125 1.120869140625
969 1540822818.172051668167 -0.062850597565 -0.002130528742 -0.019174759849 0.684975585938 -9.824370117188 1.111289062500
970 1540822818.173052787781 -0.062850597565 -0.002130528742 -0.019174759849 0.684975585938 -9.824370117188 1.101708984375
971 1540822818.174053668976 -0.062850597565 -0.002130528742 -0.019174759849 0.680185546875 -9.824370117188 1.096918945313
972 1540822818.175054788589 -0.062850597565 -0.002130528742 -0.019174759849 0.680185546875 -9.814790039063 1.087338867187
973 1540822818.176055669785 -0.062850597565 -0.002130528742 -0.019174759849 0.684975585938 -9.810000000000 1.072968750000
974 1540822818.177056789398 -0.062850597565 -0.003195793048 -0.019174759849 0.694555664063 -9.814790039063 1.077758789062
975 1540822818.178057670593 -0.061785333129 -0.004261057484 -0.019174759849 0.699345703125 -9.829160156250 1.087338867187
976 1540822818.179058790207 -0.062850597565 -0.004261057484 -0.019174759849 0.699345703125 -9.833950195313 1.101708984375
977 1540822818.180060625076 -0.061785333129 -0.004261057484 -0.020240024285 0.694555664063 -9.829160156250 1.111289062500
978 1540822818.181061744690 -0.061785333129 -0.004261057484 -0.021305288721 0.704135742188 -9.829160156250 1.106499023438
979 1540822818.182062625885 -0.060720068693 -0.004261057484 -0.021305288721 0.713715820313 -9.829160156250 1.101708984375
980 1540822818.183063745499 -0.059654804257 -0.004261057484 -0.020240024285 0.713715820313 -9.824370117188 1.106499023438
981 1540822818.184064626694 -0.060720068693 -0.004261057484 -0.020240024285 0.708925781250 -9.819580078125 1.106499023438
982 1540822818.185065746307 -0.060720068693 -0.004261057484 -0.020240024285 0.699345703125 -9.824370117188 1.106499023438
