# timestamp ang_vel_x ang_vel_y ang_vel_z lin_acc_x lin_acc_y lin_acc_z
0 1540822816.292325019836 -0.006391586736 -0.008522115648 -0.007456851192 0.052672166377 -0.158016502857 9.797022819519
1 1540822816.294326066971 -0.005326322280 -0.006391586736 -0.006391586736 0.000000000000 -0.129286229610 9.768292427063
2 1540822816.296323060989 -0.010652644560 -0.007456851192 -0.001065264456 -0.033518649638 -0.100555956364 9.749138832092
3 1540822816.298322916031 -0.009587380104 -0.009587380104 -0.002130528912 0.043095409870 -0.110132709146 9.725196838379
4 1540822816.300322055817 -0.005326322280 -0.005326322280 -0.004261057824 0.047883786261 -0.134074598551 9.782657623291
5 1540822816.302324056625 -0.004261057824 -0.002130528912 -0.007456851192 0.023941893131 -0.167593255639 9.749138832092
6 1540822816.304322004318 -0.006391586736 -0.004261057824 -0.003195793368 0.071825683117 -0.162804871798 9.811388015747
7 1540822816.306323051453 -0.007456851192 0.001065264456 -0.006391586736 0.038307029754 -0.177170008421 9.820964813232
8 1540822816.308325052261 -0.006391586736 -0.003195793368 -0.005326322280 -0.004788378719 -0.124497845769 9.825753211975
9 1540822816.310326099396 -0.008522115648 -0.003195793368 -0.010652644560 0.047883786261 -0.153228119016 9.849695205688
10 1540822816.312326908112 -0.009587380104 -0.008522115648 -0.004261057824 0.038307029754 -0.105344332755 9.825753211975
11 1540822816.314330101013 -0.009587380104 -0.006391586736 -0.004261057824 0.043095409870 -0.076614059508 9.797022819519
12 1540822816.316324949265 -0.011717909016 -0.007456851192 -0.004261057824 0.038307029754 -0.119709469378 9.715620040894
13 1540822816.318325042725 -0.008522115648 -0.007456851192 -0.001065264456 0.023941893131 -0.138862982392 9.706043243408
14 1540822816.320323944092 -0.006391586736 -0.006391586736 0.001065264456 0.052672166377 -0.191535145044 9.753927230835
15 1540822816.322333097458 -0.005326322280 -0.000000000000 -0.003195793368 0.081402435899 -0.201111912727 9.792234420776
16 1540822816.324326038361 -0.003195793368 -0.001065264456 -0.003195793368 0.052672166377 -0.134074598551 9.816176414490
17 1540822816.326325893402 -0.003195793368 -0.003195793368 -0.006391586736 0.028730273247 -0.153228119016 9.820964813232
18 1540822816.328331947327 -0.005326322280 -0.003195793368 -0.004261057824 0.033518649638 -0.100555956364 9.835330009460
19 1540822816.330324888229 -0.007456851192 -0.007456851192 -0.003195793368 0.033518649638 -0.138862982392 9.801811218262
20 1540822816.332323074341 -0.005326322280 -0.005326322280 -0.001065264456 0.000000000000 -0.129286229610 9.816176414490
21 1540822816.334323883057 -0.006391586736 -0.005326322280 -0.003195793368 0.062248922884 -0.129286229610 9.749138832092
22 1540822816.336323022842 -0.008522115648 -0.007456851192 -0.003195793368 -0.019153514877 -0.114921092987 9.806599617004
23 1540822816.338325977325 -0.005326322280 -0.008522115648 -0.002130528912 0.033518649638 -0.134074598551 9.782657623291
24 1540822816.340326070786 -0.007456851192 -0.003195793368 -0.005326322280 0.028730273247 -0.124497845769 9.706043243408
25 1540822816.342324972153 -0.009587380104 -0.003195793368 -0.006391586736 -0.019153514877 -0.124497845769 9.739562034607
26 1540822816.344325065613 -0.008522115648 -0.001065264456 -0.005326322280 0.057460546494 -0.134074598551 9.739562034607
27 1540822816.346323013306 -0.003195793368 -0.001065264456 -0.003195793368 0.019153514877 -0.172381639481 9.811388015747
28 1540822816.348325014114 -0.005326322280 -0.001065264456 -0.004261057824 0.043095409870 -0.172381639481 9.849695205688
29 1540822816.350325107574 -0.007456851192 -0.006391586736 -0.002130528912 0.033518649638 -0.110132709146 9.868848800659
30 1540822816.352325916290 -0.006391586736 -0.007456851192 -0.003195793368 0.009576757438 -0.105344332755 9.816176414490
31 1540822816.354322910309 -0.008522115648 -0.006391586736 -0.003195793368 0.043095409870 -0.134074598551 9.720408439636
32 1540822816.356338977814 -0.008522115648 -0.011717909016 -0.003195793368 0.047883786261 -0.076614059508 9.739562034607
33 1540822816.358328104019 -0.006391586736 -0.008522115648 -0.001065264456 0.033518649638 -0.105344332755 9.763504028320
34 1540822816.360325098038 -0.005326322280 -0.005326322280 0.002130528912 0.067037299275 -0.153228119016 9.753927230835
35 1540822816.362322092056 -0.002130528912 -0.001065264456 -0.000000000000 0.028730273247 -0.191535145044 9.744350433350
36 1540822816.364322900772 -0.002130528912 -0.001065264456 -0.000000000000 0.028730273247 -0.191535145044 9.744350433350
37 1540822816.366321086884 -0.006391586736 -0.002130528912 -0.005326322280 0.009576757438 -0.129286229610 9.840118408203
38 1540822816.368323087692 -0.006391586736 -0.005326322280 -0.007456851192 0.033518649638 -0.110132709146 9.773080825806
39 1540822816.370321989059 -0.004261057824 -0.006391586736 -0.001065264456 0.023941893131 -0.119709469378 9.844906806946
40 1540822816.372332096100 -0.007456851192 -0.007456851192 -0.004261057824 0.033518649638 -0.114921092987 9.844906806946
41 1540822816.374329090118 -0.007456851192 -0.007456851192 -0.002130528912 0.052672166377 -0.138862982392 9.792234420776
42 1540822816.376326084137 -0.008522115648 -0.007456851192 -0.000000000000 -0.014365136623 -0.148439735174 9.787446022034
43 1540822816.378325939178 -0.008522115648 -0.007456851192 0.001065264456 0.038307029754 -0.129286229610 9.787446022034
44 1540822816.380323886871 -0.010652644560 -0.006391586736 -0.004261057824 0.057460546494 -0.162804871798 9.763504028320
45 1540822816.382325887680 -0.005326322280 -0.005326322280 -0.003195793368 0.033518649638 -0.105344332755 9.768292427063
46 1540822816.384322881699 -0.005326322280 -0.002130528912 -0.005326322280 0.033518649638 -0.153228119016 9.859272003174
47 1540822816.386322975159 -0.005326322280 -0.003195793368 -0.002130528912 0.062248922884 -0.110132709146 9.849695205688
48 1540822816.388324022293 -0.005326322280 -0.003195793368 -0.002130528912 0.062248922884 -0.110132709146 9.849695205688
49 1540822816.390321016312 -0.005326322280 -0.005326322280 -0.005326322280 0.019153514877 -0.124497845769 9.782657623291
50 1540822816.392323970795 -0.005326322280 -0.005326322280 -0.005326322280 0.038307029754 -0.124497845769 9.749138832092
51 1540822816.394321918488 -0.006391586736 -0.005326322280 -0.005326322280 0.052672166377 -0.119709469378 9.801811218262
52 1540822816.396321058273 -0.011717909016 -0.004261057824 -0.001065264456 0.000000000000 -0.105344332755 9.749138832092
53 1540822816.398322105408 -0.010652644560 -0.005326322280 0.002130528912 0.043095409870 -0.110132709146 9.729985237122
54 1540822816.400321006775 -0.005326322280 -0.003195793368 -0.002130528912 0.009576757438 -0.095767572522 9.844906806946
55 1540822816.402328014374 -0.004261057824 -0.003195793368 -0.004261057824 0.038307029754 -0.186746776104 9.859272003174
56 1540822816.404329061508 -0.003195793368 -0.002130528912 -0.004261057824 0.043095409870 -0.148439735174 9.835330009460
57 1540822816.406320095062 -0.006391586736 -0.002130528912 -0.005326322280 0.047883786261 -0.148439735174 9.801811218262
58 1540822816.408325910568 -0.007456851192 -0.005326322280 -0.006391586736 0.038307029754 -0.129286229610 9.806599617004
59 1540822816.410324096680 -0.005326322280 -0.003195793368 -0.004261057824 0.004788378719 -0.124497845769 9.806599617004
60 1540822816.412328958511 -0.007456851192 -0.005326322280 -0.003195793368 0.000000000000 -0.134074598551 9.787446022034
61 1540822816.414324045181 -0.008522115648 -0.006391586736 -0.005326322280 0.033518649638 -0.119709469378 9.792234420776
62 1540822816.416325092316 -0.007456851192 -0.007456851192 -0.006391586736 0.014365136623 -0.162804871798 9.734773635864
63 1540822816.418323993683 -0.007456851192 -0.007456851192 -0.006391586736 0.014365136623 -0.162804871798 9.734773635864
64 1540822816.420325040817 -0.006391586736 -0.005326322280 -0.007456851192 0.038307029754 -0.158016502857 9.792234420776
65 1540822816.422326087952 -0.007456851192 -0.004261057824 -0.007456851192 0.038307029754 -0.134074598551 9.739562034607
66 1540822816.424323081970 -0.003195793368 -0.002130528912 -0.003195793368 0.057460546494 -0.143651366234 9.792234420776
67 1540822816.426321029663 -0.006391586736 -0.002130528912 -0.004261057824 0.023941893131 -0.090979196131 9.830541610718
68 1540822816.428328037262 -0.007456851192 -0.004261057824 -0.002130528912 0.019153514877 -0.153228119016 9.892790794373
69 1540822816.430324077606 -0.005326322280 -0.007456851192 -0.005326322280 0.023941893131 -0.110132709146 9.816176414490
70 1540822816.432324886322 -0.008522115648 -0.006391586736 -0.004261057824 0.038307029754 -0.105344332755 9.801811218262
71 1540822816.434324026108 -0.007456851192 -0.007456851192 -0.005326322280 0.000000000000 -0.138862982392 9.763504028320
72 1540822816.436322927475 -0.007456851192 -0.006391586736 -0.003195793368 0.009576757438 -0.186746776104 9.782657623291
73 1540822816.438329935074 -0.009587380104 -0.004261057824 -0.003195793368 0.014365136623 -0.134074598551 9.710831642151
74 1540822816.440326929092 -0.009587380104 -0.004261057824 -0.004261057824 0.019153514877 -0.124497845769 9.773080825806
75 1540822816.442326068878 -0.008522115648 -0.001065264456 -0.003195793368 0.028730273247 -0.158016502857 9.830541610718
76 1540822816.444324016571 -0.004261057824 0.001065264456 -0.003195793368 0.052672166377 -0.119709469378 9.811388015747
77 1540822816.446324110031 0.000000000000 -0.001065264456 -0.005326322280 0.047883786261 -0.172381639481 9.868848800659
78 1540822816.448323011398 -0.005326322280 -0.005326322280 -0.003195793368 0.043095409870 -0.124497845769 9.792234420776
79 1540822816.450324058533 -0.009587380104 -0.005326322280 -0.005326322280 0.062248922884 -0.172381639481 9.849695205688
80 1540822816.452325105667 -0.011717909016 -0.005326322280 -0.005326322280 0.014365136623 -0.105344332755 9.801811218262
81 1540822816.454324960709 -0.010652644560 -0.006391586736 -0.004261057824 0.014365136623 -0.090979196131 9.840118408203
82 1540822816.456325054169 -0.008522115648 -0.005326322280 -0.000000000000 0.038307029754 -0.090979196131 9.715620040894
83 1540822816.458323955536 -0.009587380104 -0.003195793368 -0.000000000000 0.033518649638 -0.114921092987 9.792234420776
84 1540822816.460325956345 -0.006391586736 0.002130528912 -0.002130528912 0.023941893131 -0.138862982392 9.792234420776
85 1540822816.462327003479 -0.005326322280 0.001065264456 -0.005326322280 0.052672166377 -0.177170008421 9.768292427063
86 1540822816.464320898056 -0.007456851192 -0.001065264456 -0.004261057824 0.043095409870 -0.167593255639 9.782657623291
87 1540822816.466321945190 -0.008522115648 -0.002130528912 -0.007456851192 0.033518649638 -0.148439735174 9.873637199402
88 1540822816.468322992325 -0.007456851192 0.001065264456 -0.004261057824 0.004788378719 -0.124497845769 9.859272003174
89 1540822816.470321893692 -0.007456851192 -0.004261057824 -0.003195793368 0.023941893131 -0.114921092987 9.806599617004
90 1540822816.472323894501 -0.009587380104 -0.008522115648 -0.004261057824 0.000000000000 -0.134074598551 9.797022819519
91 1540822816.474324941635 -0.010652644560 -0.007456851192 -0.003195793368 0.067037299275 -0.114921092987 9.787446022034
92 1540822816.476334095001 -0.007456851192 -0.006391586736 -0.000000000000 -0.014365136623 -0.124497845769 9.710831642151
93 1540822816.478326082230 -0.005326322280 -0.006391586736 0.002130528912 0.014365136623 -0.186746776104 9.820964813232
94 1540822816.480326890945 -0.005326322280 -0.006391586736 0.002130528912 0.014365136623 -0.186746776104 9.820964813232
95 1540822816.482325077057 -0.006391586736 -0.004261057824 -0.002130528912 0.047883786261 -0.119709469378 9.816176414490
96 1540822816.484325885773 -0.006391586736 -0.000000000000 -0.005326322280 0.043095409870 -0.129286229610 9.792234420776
97 1540822816.486325979233 -0.005326322280 -0.000000000000 -0.005326322280 0.062248922884 -0.100555956364 9.830541610718
98 1540822816.488325119019 -0.005326322280 -0.004261057824 -0.002130528912 0.047883786261 -0.158016502857 9.911944389343
99 1540822816.490325927734 -0.008522115648 -0.005326322280 -0.003195793368 0.033518649638 -0.105344332755 9.844906806946
100 1540822816.492325067520 -0.006391586736 -0.008522115648 -0.005326322280 0.033518649638 -0.105344332755 9.753927230835
101 1540822816.494324922562 -0.007456851192 -0.009587380104 -0.003195793368 -0.019153514877 -0.138862982392 9.691679000854
102 1540822816.496323108673 -0.007456851192 -0.003195793368 -0.003195793368 0.019153514877 -0.095767572522 9.706043243408
103 1540822816.498322963715 -0.007456851192 -0.003195793368 -0.003195793368 0.019153514877 -0.095767572522 9.706043243408
104 1540822816.500322103500 -0.009587380104 -0.003195793368 -0.002130528912 0.043095409870 -0.148439735174 9.725196838379
105 1540822816.502321004868 -0.007456851192 -0.003195793368 -0.002130528912 0.062248922884 -0.138862982392 9.801811218262
106 1540822816.504323959351 -0.006391586736 -0.002130528912 -0.001065264456 0.062248922884 -0.119709469378 9.844906806946
107 1540822816.506324052811 -0.005326322280 -0.004261057824 -0.002130528912 0.019153514877 -0.124497845769 9.849695205688
108 1540822816.508326053619 -0.006391586736 -0.004261057824 -0.004261057824 0.062248922884 -0.138862982392 9.844906806946
109 1540822816.510323047638 -0.005326322280 -0.004261057824 -0.004261057824 0.028730273247 -0.105344332755 9.806599617004
110 1540822816.512326002121 -0.009587380104 -0.004261057824 -0.001065264456 0.023941893131 -0.134074598551 9.820964813232
111 1540822816.514324903488 -0.007456851192 -0.006391586736 -0.004261057824 0.028730273247 -0.100555956364 9.840118408203
112 1540822816.516324043274 -0.008522115648 -0.004261057824 -0.004261057824 0.038307029754 -0.119709469378 9.801811218262
113 1540822816.518323898315 -0.008522115648 -0.002130528912 -0.001065264456 0.062248922884 -0.134074598551 9.739562034607
114 1540822816.520324945450 -0.006391586736 -0.005326322280 -0.002130528912 0.038307029754 -0.148439735174 9.753927230835
115 1540822816.522325038910 -0.005326322280 -0.002130528912 -0.006391586736 0.023941893131 -0.148439735174 9.797022819519
116 1540822816.524327039719 -0.006391586736 -0.000000000000 -0.005326322280 0.009576757438 -0.124497845769 9.768292427063
117 1540822816.526323080063 -0.004261057824 -0.002130528912 -0.005326322280 0.028730273247 -0.134074598551 9.811388015747
118 1540822816.528325080872 -0.005326322280 -0.004261057824 -0.005326322280 0.071825683117 -0.148439735174 9.835330009460
119 1540822816.530328035355 -0.007456851192 -0.006391586736 -0.002130528912 0.043095409870 -0.114921092987 9.825753211975
120 1540822816.532325029373 -0.008522115648 -0.005326322280 -0.003195793368 0.033518649638 -0.129286229610 9.787446022034
121 1540822816.534322977066 -0.008522115648 -0.003195793368 -0.000000000000 0.000000000000 -0.138862982392 9.758715629578
122 1540822816.536324024200 -0.005326322280 -0.003195793368 -0.003195793368 -0.009576757438 -0.134074598551 9.753927230835
123 1540822816.538322925568 -0.005326322280 -0.002130528912 -0.004261057824 0.019153514877 -0.100555956364 9.806599617004
124 1540822816.540323019028 -0.008522115648 -0.004261057824 -0.003195793368 0.067037299275 -0.143651366234 9.758715629578
125 1540822816.542326927185 -0.004261057824 -0.001065264456 -0.004261057824 0.023941893131 -0.138862982392 9.782657623291
126 1540822816.544326066971 -0.005326322280 0.002130528912 -0.005326322280 0.019153514877 -0.186746776104 9.787446022034
127 1540822816.546324014664 -0.007456851192 -0.004261057824 -0.005326322280 0.023941893131 -0.129286229610 9.868848800659
128 1540822816.548321962357 -0.008522115648 -0.005326322280 -0.004261057824 0.057460546494 -0.114921092987 9.782657623291
129 1540822816.550338029861 -0.008522115648 -0.004261057824 -0.004261057824 0.023941893131 -0.134074598551 9.787446022034
130 1540822816.552328109741 -0.009587380104 -0.006391586736 -0.003195793368 0.028730273247 -0.119709469378 9.797022819519
131 1540822816.554326057434 -0.009587380104 -0.008522115648 -0.001065264456 -0.004788378719 -0.134074598551 9.725196838379
132 1540822816.556324958801 -0.009587380104 -0.005326322280 -0.005326322280 0.014365136623 -0.100555956364 9.792234420776
133 1540822816.558324098587 -0.010652644560 -0.005326322280 -0.001065264456 0.023941893131 -0.129286229610 9.720408439636
134 1540822816.560324907303 -0.004261057824 -0.004261057824 -0.002130528912 0.028730273247 -0.148439735174 9.811388015747
135 1540822816.562325000763 -0.004261057824 -0.003195793368 -0.006391586736 0.071825683117 -0.134074598551 9.768292427063
136 1540822816.564322948456 -0.003195793368 -0.002130528912 -0.004261057824 0.033518649638 -0.134074598551 9.806599617004
137 1540822816.566323995590 -0.004261057824 -0.004261057824 -0.005326322280 0.038307029754 -0.138862982392 9.830541610718
138 1540822816.568320989609 -0.004261057824 -0.004261057824 -0.002130528912 0.038307029754 -0.095767572522 9.792234420776
139 1540822816.570322036743 -0.009587380104 -0.007456851192 -0.004261057824 0.033518649638 -0.095767572522 9.782657623291
140 1540822816.572331905365 -0.008522115648 -0.007456851192 -0.003195793368 0.028730273247 -0.153228119016 9.763504028320
141 1540822816.574325084686 -0.008522115648 -0.004261057824 -0.003195793368 0.047883786261 -0.153228119016 9.787446022034
142 1540822816.576320886612 -0.012783173472 -0.006391586736 -0.004261057824 0.033518649638 -0.153228119016 9.806599617004
143 1540822816.578324079514 -0.007456851192 -0.003195793368 -0.005326322280 0.047883786261 -0.143651366234 9.768292427063
144 1540822816.580323934555 -0.006391586736 -0.001065264456 -0.003195793368 0.067037299275 -0.143651366234 9.749138832092
145 1540822816.582325935364 -0.005326322280 -0.002130528912 -0.004261057824 0.023941893131 -0.167593255639 9.797022819519
146 1540822816.584323883057 -0.005326322280 -0.001065264456 -0.003195793368 0.043095409870 -0.086190819740 9.873637199402
147 1540822816.586323022842 -0.008522115648 -0.004261057824 -0.005326322280 0.043095409870 -0.105344332755 9.892790794373
148 1540822816.588321924210 -0.006391586736 -0.007456851192 -0.006391586736 0.062248922884 -0.105344332755 9.806599617004
149 1540822816.590323925018 -0.003195793368 -0.004261057824 -0.003195793368 0.062248922884 -0.114921092987 9.758715629578
150 1540822816.592323064804 -0.008522115648 -0.007456851192 -0.003195793368 0.023941893131 -0.124497845769 9.777869224548
151 1540822816.594322919846 -0.010652644560 -0.006391586736 -0.003195793368 -0.004788378719 -0.138862982392 9.825753211975
152 1540822816.596321105957 -0.010652644560 -0.007456851192 -0.001065264456 0.014365136623 -0.134074598551 9.768292427063
153 1540822816.598321914673 -0.008522115648 -0.003195793368 -0.003195793368 0.000000000000 -0.129286229610 9.777869224548
154 1540822816.600321054459 -0.007456851192 -0.000000000000 -0.003195793368 0.023941893131 -0.162804871798 9.763504028320
155 1540822816.602322101593 -0.007456851192 -0.000000000000 0.001065264456 0.043095409870 -0.158016502857 9.758715629578
156 1540822816.604322910309 -0.003195793368 -0.001065264456 -0.004261057824 0.081402435899 -0.186746776104 9.840118408203
157 1540822816.606326103210 -0.005326322280 -0.002130528912 -0.004261057824 0.043095409870 -0.172381639481 9.811388015747
158 1540822816.608320951462 -0.010652644560 -0.008522115648 -0.005326322280 0.023941893131 -0.148439735174 9.758715629578
159 1540822816.610322952271 -0.009587380104 -0.006391586736 -0.003195793368 0.057460546494 -0.143651366234 9.797022819519
160 1540822816.612325906754 -0.010652644560 -0.004261057824 -0.005326322280 0.043095409870 -0.086190819740 9.806599617004
161 1540822816.614326000214 -0.009587380104 -0.005326322280 -0.005326322280 0.057460546494 -0.172381639481 9.782657623291
162 1540822816.616324901581 -0.009587380104 -0.002130528912 -0.000000000000 0.023941893131 -0.100555956364 9.720408439636
163 1540822816.618324995041 -0.003195793368 -0.003195793368 -0.004261057824 0.009576757438 -0.172381639481 9.773080825806
164 1540822816.620323896408 -0.008522115648 -0.002130528912 -0.004261057824 0.057460546494 -0.162804871798 9.729985237122
165 1540822816.622323989868 -0.005326322280 -0.003195793368 -0.005326322280 -0.004788378719 -0.124497845769 9.734773635864
166 1540822816.624325990677 -0.005326322280 -0.001065264456 -0.004261057824 0.052672166377 -0.143651366234 9.820964813232
167 1540822816.626327037811 -0.005326322280 -0.000000000000 -0.005326322280 0.076614059508 -0.134074598551 9.844906806946
168 1540822816.628325939178 -0.007456851192 -0.005326322280 -0.002130528912 0.023941893131 -0.162804871798 9.830541610718
169 1540822816.630321979523 -0.009587380104 -0.008522115648 -0.006391586736 0.009576757438 -0.129286229610 9.801811218262
170 1540822816.632327079773 -0.007456851192 -0.009587380104 -0.007456851192 0.014365136623 -0.158016502857 9.782657623291
171 1540822816.634325981140 -0.007456851192 -0.008522115648 -0.004261057824 0.057460546494 -0.134074598551 9.763504028320
172 1540822816.636322975159 -0.009587380104 -0.009587380104 -0.003195793368 0.028730273247 -0.148439735174 9.773080825806
173 1540822816.638322114944 -0.006391586736 -0.003195793368 -0.003195793368 0.033518649638 -0.138862982392 9.739562034607
174 1540822816.640325069427 -0.003195793368 -0.004261057824 -0.004261057824 0.033518649638 -0.158016502857 9.734773635864
175 1540822816.642323970795 -0.005326322280 0.001065264456 -0.005326322280 0.023941893131 -0.177170008421 9.753927230835
176 1540822816.644325017929 -0.008522115648 -0.001065264456 -0.006391586736 0.057460546494 -0.153228119016 9.835330009460
177 1540822816.646323919296 -0.006391586736 -0.003195793368 -0.003195793368 0.047883786261 -0.143651366234 9.758715629578
178 1540822816.648324966431 -0.008522115648 -0.003195793368 -0.004261057824 0.004788378719 -0.100555956364 9.816176414490
179 1540822816.650325059891 -0.008522115648 -0.004261057824 -0.002130528912 0.028730273247 -0.138862982392 9.816176414490
180 1540822816.652328014374 -0.008522115648 -0.005326322280 -0.002130528912 0.028730273247 -0.114921092987 9.811388015747
181 1540822816.654325962067 -0.010652644560 -0.005326322280 -0.005326322280 0.023941893131 -0.138862982392 9.777869224548
182 1540822816.656326055527 -0.006391586736 -0.004261057824 -0.002130528912 0.047883786261 -0.138862982392 9.787446022034
183 1540822816.658324003220 -0.003195793368 -0.002130528912 -0.004261057824 0.038307029754 -0.110132709146 9.744350433350
184 1540822816.660322904587 -0.006391586736 -0.002130528912 -0.004261057824 0.047883786261 -0.119709469378 9.773080825806
185 1540822816.662323951721 -0.006391586736 -0.001065264456 -0.005326322280 0.028730273247 -0.162804871798 9.859272003174
186 1540822816.664324045181 -0.008522115648 -0.004261057824 -0.004261057824 0.062248922884 -0.124497845769 9.816176414490
187 1540822816.666322946548 -0.006391586736 -0.006391586736 -0.006391586736 -0.004788378719 -0.134074598551 9.797022819519
188 1540822816.668323993683 -0.006391586736 -0.007456851192 -0.006391586736 0.023941893131 -0.124497845769 9.840118408203
189 1540822816.670322895050 -0.005326322280 -0.006391586736 -0.004261057824 0.033518649638 -0.148439735174 9.820964813232
190 1540822816.672323942184 -0.009587380104 -0.007456851192 -0.002130528912 -0.019153514877 -0.129286229610 9.811388015747
191 1540822816.674324035645 -0.007456851192 -0.007456851192 -0.002130528912 0.014365136623 -0.129286229610 9.753927230835
192 1540822816.676323890686 -0.005326322280 -0.002130528912 -0.006391586736 0.033518649638 -0.167593255639 9.777869224548
193 1540822816.678325891495 -0.007456851192 -0.000000000000 -0.005326322280 0.033518649638 -0.100555956364 9.753927230835
194 1540822816.680325031281 -0.005326322280 -0.001065264456 -0.003195793368 0.052672166377 -0.158016502857 9.768292427063
195 1540822816.682326078415 -0.005326322280 -0.002130528912 -0.004261057824 0.043095409870 -0.158016502857 9.820964813232
196 1540822816.684328079224 -0.006391586736 -0.002130528912 -0.007456851192 0.043095409870 -0.181958392262 9.797022819519
197 1540822816.686327934265 -0.006391586736 -0.006391586736 -0.002130528912 0.081402435899 -0.129286229610 9.806599617004
198 1540822816.688324928284 -0.006391586736 -0.006391586736 -0.002130528912 0.081402435899 -0.129286229610 9.806599617004
199 1540822816.690325021744 -0.008522115648 -0.004261057824 -0.003195793368 0.038307029754 -0.162804871798 9.801811218262
200 1540822816.692325115204 -0.006391586736 -0.008522115648 -0.005326322280 0.057460546494 -0.138862982392 9.806599617004
201 1540822816.694324016571 -0.008522115648 -0.007456851192 -0.004261057824 -0.004788378719 -0.129286229610 9.710831642151
202 1540822816.696321964264 -0.009587380104 -0.005326322280 -0.002130528912 0.019153514877 -0.134074598551 9.739562034607
203 1540822816.698327064514 -0.003195793368 -0.004261057824 -0.003195793368 0.052672166377 -0.153228119016 9.830541610718
204 1540822816.700324058533 -0.005326322280 -0.005326322280 -0.004261057824 0.023941893131 -0.124497845769 9.758715629578
205 1540822816.702322006226 -0.006391586736 -0.004261057824 -0.004261057824 -0.004788378719 -0.143651366234 9.820964813232
206 1540822816.704322099686 -0.007456851192 -0.002130528912 -0.005326322280 0.067037299275 -0.143651366234 9.868848800659
207 1540822816.706321954727 -0.007456851192 -0.003195793368 -0.002130528912 0.009576757438 -0.090979196131 9.825753211975
208 1540822816.708323001862 -0.007456851192 -0.005326322280 -0.003195793368 0.023941893131 -0.095767572522 9.878425598145
209 1540822816.710323095322 -0.008522115648 -0.008522115648 -0.002130528912 0.047883786261 -0.129286229610 9.749138832092
210 1540822816.712322950363 -0.006391586736 -0.007456851192 -0.001065264456 0.014365136623 -0.105344332755 9.725196838379
211 1540822816.714322090149 -0.009587380104 -0.007456851192 -0.003195793368 0.062248922884 -0.138862982392 9.753927230835
212 1540822816.716322898865 -0.008522115648 -0.005326322280 -0.001065264456 0.023941893131 -0.138862982392 9.816176414490
213 1540822816.718322038651 -0.007456851192 -0.002130528912 -0.004261057824 0.000000000000 -0.158016502857 9.830541610718
214 1540822816.720324993134 -0.004261057824 0.002130528912 -0.005326322280 0.028730273247 -0.158016502857 9.782657623291
215 1540822816.722325086594 -0.008522115648 -0.002130528912 -0.004261057824 0.052672166377 -0.148439735174 9.835330009460
216 1540822816.724327087402 -0.005326322280 -0.003195793368 -0.004261057824 0.033518649638 -0.100555956364 9.840118408203
217 1540822816.726325035095 -0.010652644560 -0.008522115648 -0.005326322280 0.043095409870 -0.153228119016 9.859272003174
218 1540822816.728324890137 -0.009587380104 -0.009587380104 -0.004261057824 0.033518649638 -0.119709469378 9.825753211975
219 1540822816.730323076248 -0.008522115648 -0.003195793368 -0.006391586736 0.038307029754 -0.172381639481 9.811388015747
220 1540822816.732326030731 -0.007456851192 -0.005326322280 -0.000000000000 0.067037299275 -0.129286229610 9.792234420776
221 1540822816.734325885773 -0.007456851192 -0.006391586736 -0.000000000000 0.028730273247 -0.143651366234 9.758715629578
222 1540822816.736325979233 -0.009587380104 -0.002130528912 -0.002130528912 0.009576757438 -0.167593255639 9.734773635864
223 1540822816.738323926926 -0.007456851192 -0.000000000000 -0.003195793368 0.043095409870 -0.162804871798 9.811388015747
224 1540822816.740325927734 -0.003195793368 -0.003195793368 -0.006391586736 0.057460546494 -0.129286229610 9.825753211975
225 1540822816.742325067520 -0.005326322280 -0.003195793368 -0.006391586736 0.019153514877 -0.119709469378 9.777869224548
226 1540822816.744326114655 -0.004261057824 -0.005326322280 -0.001065264456 0.047883786261 -0.148439735174 9.854483604431
227 1540822816.746324062347 -0.006391586736 -0.004261057824 -0.003195793368 0.028730273247 -0.129286229610 9.888002395630
228 1540822816.748322010040 -0.008522115648 -0.005326322280 -0.006391586736 0.009576757438 -0.129286229610 9.797022819519
229 1540822816.750320911407 -0.003195793368 -0.006391586736 -0.002130528912 0.038307029754 -0.148439735174 9.787446022034
230 1540822816.752324104309 -0.006391586736 -0.007456851192 -0.002130528912 0.019153514877 -0.129286229610 9.763504028320
231 1540822816.754306077957 -0.007456851192 -0.008522115648 -0.002130528912 0.057460546494 -0.191535145044 9.758715629578
232 1540822816.756318092346 -0.007456851192 -0.006391586736 -0.001065264456 0.033518649638 -0.162804871798 9.777869224548
233 1540822816.758337974548 -0.009587380104 -0.004261057824 -0.002130528912 0.028730273247 -0.153228119016 9.758715629578
234 1540822816.760327100754 -0.006391586736 -0.005326322280 -0.003195793368 0.033518649638 -0.158016502857 9.773080825806
235 1540822816.762330055237 -0.003195793368 -0.002130528912 -0.005326322280 0.062248922884 -0.167593255639 9.816176414490
236 1540822816.764326095581 -0.007456851192 -0.005326322280 -0.005326322280 0.028730273247 -0.114921092987 9.782657623291
237 1540822816.766324043274 -0.009587380104 -0.005326322280 -0.004261057824 0.067037299275 -0.105344332755 9.801811218262
238 1540822816.768323898315 -0.007456851192 -0.005326322280 -0.001065264456 0.043095409870 -0.158016502857 9.801811218262
239 1540822816.770323038101 -0.008522115648 -0.006391586736 -0.002130528912 0.038307029754 -0.129286229610 9.758715629578
240 1540822816.772327899933 -0.007456851192 -0.004261057824 -0.004261057824 0.004788378719 -0.105344332755 9.777869224548
241 1540822816.774323940277 -0.008522115648 -0.004261057824 -0.004261057824 0.033518649638 -0.124497845769 9.777869224548
242 1540822816.776324033737 -0.009587380104 -0.004261057824 -0.003195793368 0.033518649638 -0.114921092987 9.710831642151
243 1540822816.778323888779 -0.007456851192 -0.005326322280 -0.002130528912 0.038307029754 -0.186746776104 9.825753211975
244 1540822816.780325889587 -0.004261057824 -0.005326322280 -0.003195793368 0.009576757438 -0.158016502857 9.811388015747
245 1540822816.782321929932 -0.005326322280 -0.002130528912 -0.004261057824 0.023941893131 -0.158016502857 9.868848800659
246 1540822816.784321069717 -0.008522115648 -0.003195793368 -0.007456851192 0.038307029754 -0.134074598551 9.806599617004
247 1540822816.786329984665 -0.009587380104 -0.005326322280 -0.003195793368 -0.019153514877 -0.143651366234 9.830541610718
248 1540822816.788324117661 -0.010652644560 -0.004261057824 0.002130528912 0.043095409870 -0.114921092987 9.787446022034
249 1540822816.790323972702 -0.012783173472 -0.006391586736 -0.002130528912 0.000000000000 -0.124497845769 9.773080825806
250 1540822816.792324066162 -0.008522115648 -0.005326322280 -0.003195793368 0.023941893131 -0.134074598551 9.739562034607
251 1540822816.794322013855 -0.009587380104 -0.003195793368 -0.004261057824 0.033518649638 -0.143651366234 9.725196838379
252 1540822816.796322107315 -0.006391586736 -0.001065264456 -0.006391586736 -0.004788378719 -0.138862982392 9.773080825806
253 1540822816.798321008682 -0.007456851192 -0.001065264456 -0.007456851192 0.038307029754 -0.143651366234 9.840118408203
254 1540822816.800323009491 -0.007456851192 -0.004261057824 -0.006391586736 0.033518649638 -0.119709469378 9.854483604431
255 1540822816.802321910858 -0.004261057824 -0.003195793368 -0.004261057824 0.043095409870 -0.124497845769 9.916732788086
256 1540822816.804322004318 -0.003195793368 -0.002130528912 -0.003195793368 0.071825683117 -0.158016502857 9.797022819519
257 1540822816.806322097778 -0.009587380104 -0.004261057824 -0.004261057824 0.047883786261 -0.110132709146 9.797022819519
258 1540822816.808327913284 -0.010652644560 -0.007456851192 -0.005326322280 0.019153514877 -0.153228119016 9.801811218262
259 1540822816.810322046280 -0.011717909016 -0.004261057824 -0.004261057824 0.014365136623 -0.148439735174 9.729985237122
260 1540822816.812321901321 -0.009587380104 -0.005326322280 -0.007456851192 0.019153514877 -0.167593255639 9.744350433350
261 1540822816.814322948456 -0.007456851192 -0.006391586736 -0.002130528912 0.033518649638 -0.153228119016 9.734773635864
262 1540822816.816323041916 -0.006391586736 -0.003195793368 -0.004261057824 0.014365136623 -0.158016502857 9.701254844666
263 1540822816.818321943283 -0.002130528912 -0.002130528912 -0.006391586736 0.014365136623 -0.177170008421 9.820964813232
264 1540822816.820321083069 -0.005326322280 0.001065264456 -0.004261057824 0.028730273247 -0.105344332755 9.825753211975
265 1540822816.822321891785 -0.009587380104 0.001065264456 -0.005326322280 0.047883786261 -0.114921092987 9.830541610718
266 1540822816.824321031570 -0.007456851192 -0.004261057824 -0.007456851192 0.057460546494 -0.158016502857 9.844906806946
267 1540822816.826320886612 -0.003195793368 -0.005326322280 -0.007456851192 0.086190819740 -0.167593255639 9.835330009460
268 1540822816.828325033188 -0.006391586736 -0.007456851192 -0.003195793368 0.033518649638 -0.129286229610 9.744350433350
269 1540822816.830327987671 -0.008522115648 -0.003195793368 -0.006391586736 0.014365136623 -0.143651366234 9.801811218262
270 1540822816.832324981689 -0.008522115648 -0.006391586736 -0.004261057824 0.023941893131 -0.134074598551 9.768292427063
271 1540822816.834325075150 -0.008522115648 -0.003195793368 -0.004261057824 0.014365136623 -0.148439735174 9.753927230835
272 1540822816.836332082748 -0.006391586736 -0.005326322280 -0.001065264456 0.000000000000 -0.148439735174 9.797022819519
273 1540822816.838330030441 -0.003195793368 -0.001065264456 -0.001065264456 0.043095409870 -0.143651366234 9.720408439636
274 1540822816.840326070786 -0.004261057824 -0.002130528912 -0.007456851192 0.038307029754 -0.119709469378 9.811388015747
275 1540822816.842324972153 -0.002130528912 -0.002130528912 -0.004261057824 0.047883786261 -0.148439735174 9.840118408203
276 1540822816.844325065613 -0.004261057824 -0.005326322280 -0.005326322280 0.023941893131 -0.143651366234 9.883213996887
277 1540822816.846323966980 -0.007456851192 -0.007456851192 -0.003195793368 0.028730273247 -0.100555956364 9.825753211975
278 1540822816.848324060440 -0.008522115648 -0.009587380104 -0.002130528912 0.019153514877 -0.124497845769 9.787446022034
279 1540822816.850323915482 -0.007456851192 -0.008522115648 -0.001065264456 0.000000000000 -0.138862982392 9.744350433350
280 1540822816.852327108383 -0.006391586736 -0.004261057824 -0.003195793368 -0.009576757438 -0.158016502857 9.744350433350
281 1540822816.854325056076 -0.008522115648 -0.004261057824 -0.001065264456 0.014365136623 -0.119709469378 9.739562034607
282 1540822816.856324911118 -0.004261057824 -0.004261057824 -0.002130528912 0.047883786261 -0.167593255639 9.797022819519
283 1540822816.858321905136 -0.006391586736 -0.002130528912 -0.003195793368 0.004788378719 -0.172381639481 9.835330009460
284 1540822816.860321044922 -0.008522115648 -0.002130528912 -0.003195793368 0.014365136623 -0.134074598551 9.873637199402
285 1540822816.862322092056 -0.004261057824 -0.001065264456 -0.004261057824 0.062248922884 -0.158016502857 9.840118408203
286 1540822816.864320039749 -0.005326322280 -0.004261057824 -0.003195793368 0.004788378719 -0.100555956364 9.820964813232
287 1540822816.866322994232 -0.008522115648 -0.006391586736 -0.004261057824 0.009576757438 -0.134074598551 9.825753211975
288 1540822816.868323087692 -0.009587380104 -0.007456851192 -0.000000000000 0.086190819740 -0.143651366234 9.820964813232
289 1540822816.870322942734 -0.008522115648 -0.005326322280 -0.004261057824 -0.009576757438 -0.148439735174 9.782657623291
290 1540822816.872327089310 -0.006391586736 -0.005326322280 -0.004261057824 0.033518649638 -0.105344332755 9.749138832092
291 1540822816.874325037003 -0.008522115648 -0.006391586736 -0.002130528912 0.014365136623 -0.153228119016 9.777869224548
292 1540822816.876324892044 -0.009587380104 -0.004261057824 -0.002130528912 0.043095409870 -0.124497845769 9.729985237122
293 1540822816.878324031830 -0.007456851192 -0.001065264456 -0.003195793368 0.009576757438 -0.143651366234 9.768292427063
294 1540822816.880326032639 -0.006391586736 -0.002130528912 -0.002130528912 0.047883786261 -0.153228119016 9.782657623291
295 1540822816.882332086563 -0.006391586736 -0.003195793368 -0.004261057824 0.057460546494 -0.158016502857 9.801811218262
296 1540822816.884325027466 -0.009587380104 -0.002130528912 -0.003195793368 0.023941893131 -0.134074598551 9.811388015747
297 1540822816.886324882507 -0.009587380104 -0.005326322280 -0.003195793368 -0.014365136623 -0.143651366234 9.820964813232
298 1540822816.888339996338 -0.010652644560 -0.005326322280 -0.005326322280 0.062248922884 -0.138862982392 9.763504028320
299 1540822816.890325069427 -0.008522115648 -0.004261057824 -0.005326322280 0.038307029754 -0.105344332755 9.811388015747
300 1540822816.892324924469 -0.007456851192 -0.004261057824 -0.005326322280 -0.023941893131 -0.090979196131 9.715620040894
301 1540822816.894324064255 -0.006391586736 -0.003195793368 -0.004261057824 0.038307029754 -0.143651366234 9.744350433350
302 1540822816.896322011948 -0.006391586736 -0.002130528912 -0.001065264456 0.038307029754 -0.172381639481 9.830541610718
303 1540822816.898320913315 -0.006391586736 -0.002130528912 -0.000000000000 0.062248922884 -0.134074598551 9.763504028320
304 1540822816.900321960449 -0.002130528912 -0.001065264456 -0.004261057824 0.038307029754 -0.158016502857 9.801811218262
305 1540822816.902323961258 -0.003195793368 -0.003195793368 -0.005326322280 0.033518649638 -0.134074598551 9.811388015747
306 1540822816.904321908951 -0.005326322280 -0.004261057824 -0.003195793368 0.047883786261 -0.134074598551 9.825753211975
307 1540822816.906320095062 -0.008522115648 -0.002130528912 0.001065264456 0.038307029754 -0.114921092987 9.816176414490
308 1540822816.908320903778 -0.009587380104 -0.003195793368 -0.004261057824 0.023941893131 -0.143651366234 9.763504028320
309 1540822816.910325050354 -0.007456851192 -0.003195793368 -0.002130528912 0.033518649638 -0.158016502857 9.758715629578
310 1540822816.912326097488 -0.007456851192 -0.007456851192 0.002130528912 -0.009576757438 -0.181958392262 9.720408439636
311 1540822816.914325952530 -0.005326322280 -0.007456851192 -0.004261057824 0.023941893131 -0.167593255639 9.763504028320
312 1540822816.916326999664 -0.004261057824 -0.005326322280 -0.003195793368 0.023941893131 -0.172381639481 9.758715629578
313 1540822816.918324947357 -0.002130528912 -0.002130528912 -0.002130528912 0.043095409870 -0.114921092987 9.844906806946
314 1540822816.920324087143 -0.005326322280 -0.003195793368 -0.001065264456 0.062248922884 -0.124497845769 9.859272003174
315 1540822816.922327041626 -0.007456851192 -0.007456851192 -0.005326322280 0.062248922884 -0.129286229610 9.792234420776
316 1540822816.924326896667 -0.004261057824 -0.006391586736 -0.008522115648 0.019153514877 -0.153228119016 9.844906806946
317 1540822816.926323890686 -0.008522115648 -0.006391586736 -0.003195793368 0.019153514877 -0.181958392262 9.801811218262
318 1540822816.928328990936 -0.009587380104 -0.005326322280 -0.000000000000 0.052672166377 -0.148439735174 9.811388015747
319 1540822816.930325031281 -0.006391586736 -0.006391586736 -0.002130528912 0.067037299275 -0.143651366234 9.753927230835
320 1540822816.932326078415 -0.007456851192 -0.006391586736 -0.004261057824 0.033518649638 -0.148439735174 9.773080825806
321 1540822816.934324979782 -0.004261057824 -0.005326322280 -0.001065264456 0.062248922884 -0.119709469378 9.787446022034
322 1540822816.936321973801 -0.003195793368 -0.004261057824 -0.004261057824 0.023941893131 -0.148439735174 9.782657623291
323 1540822816.938323020935 -0.006391586736 -0.002130528912 -0.003195793368 0.043095409870 -0.153228119016 9.777869224548
324 1540822816.940325021744 -0.004261057824 -0.001065264456 -0.006391586736 -0.004788378719 -0.186746776104 9.844906806946
325 1540822816.942323923111 -0.008522115648 -0.004261057824 -0.005326322280 0.023941893131 -0.100555956364 9.773080825806
326 1540822816.944323062897 -0.010652644560 -0.004261057824 -0.003195793368 0.028730273247 -0.129286229610 9.859272003174
327 1540822816.946321010590 -0.007456851192 -0.005326322280 -0.002130528912 0.043095409870 -0.129286229610 9.739562034607
328 1540822816.948321104050 -0.010652644560 -0.006391586736 -0.004261057824 0.014365136623 -0.129286229610 9.782657623291
329 1540822816.950323104858 -0.011717909016 -0.007456851192 -0.000000000000 0.009576757438 -0.153228119016 9.753927230835
330 1540822816.952323913574 -0.009587380104 -0.006391586736 -0.001065264456 0.033518649638 -0.158016502857 9.753927230835
331 1540822816.954325914383 -0.006391586736 -0.004261057824 -0.002130528912 0.023941893131 -0.143651366234 9.710831642151
332 1540822816.956326007843 -0.003195793368 -0.001065264456 -0.005326322280 0.028730273247 -0.181958392262 9.801811218262
333 1540822816.958326101303 -0.004261057824 -0.000000000000 -0.003195793368 0.038307029754 -0.153228119016 9.849695205688
334 1540822816.960324048996 -0.007456851192 -0.000000000000 -0.003195793368 0.062248922884 -0.167593255639 9.830541610718
335 1540822816.962325096130 -0.007456851192 -0.003195793368 -0.002130528912 0.047883786261 -0.134074598551 9.820964813232
336 1540822816.964324951172 -0.009587380104 -0.002130528912 -0.003195793368 0.033518649638 -0.110132709146 9.830541610718
337 1540822816.966321945190 -0.011717909016 -0.006391586736 -0.004261057824 0.052672166377 -0.105344332755 9.749138832092
338 1540822816.968327045441 -0.011717909016 -0.004261057824 -0.005326322280 0.000000000000 -0.138862982392 9.758715629578
339 1540822816.970325946808 -0.005326322280 -0.005326322280 -0.002130528912 0.023941893131 -0.124497845769 9.758715629578
340 1540822816.972325086594 -0.007456851192 -0.003195793368 -0.002130528912 0.014365136623 -0.167593255639 9.782657623291
341 1540822816.974329948425 -0.008522115648 -0.000000000000 -0.000000000000 0.028730273247 -0.143651366234 9.744350433350
342 1540822816.976321935654 -0.004261057824 -0.000000000000 -0.003195793368 0.038307029754 -0.162804871798 9.763504028320
343 1540822816.978319883347 -0.004261057824 -0.001065264456 -0.005326322280 0.019153514877 -0.143651366234 9.830541610718
344 1540822816.980320930481 -0.005326322280 -0.004261057824 -0.002130528912 0.014365136623 -0.100555956364 9.830541610718
345 1540822816.982321023941 -0.005326322280 -0.005326322280 -0.006391586736 0.014365136623 -0.124497845769 9.825753211975
346 1540822816.984324932098 -0.006391586736 -0.003195793368 -0.003195793368 0.057460546494 -0.124497845769 9.840118408203
347 1540822816.986325979233 -0.008522115648 -0.003195793368 -0.006391586736 0.076614059508 -0.153228119016 9.801811218262
348 1540822816.988325119019 -0.009587380104 -0.007456851192 -0.002130528912 0.023941893131 -0.143651366234 9.787446022034
349 1540822816.990325927734 -0.007456851192 -0.006391586736 -0.002130528912 0.009576757438 -0.143651366234 9.729985237122
350 1540822816.992326974869 -0.006391586736 -0.006391586736 -0.002130528912 0.019153514877 -0.148439735174 9.777869224548
351 1540822816.994323968887 -0.008522115648 -0.004261057824 -0.001065264456 0.028730273247 -0.181958392262 9.768292427063
352 1540822816.996323108673 -0.005326322280 -0.002130528912 -0.000000000000 0.033518649638 -0.181958392262 9.820964813232
353 1540822816.998322963715 -0.003195793368 -0.003195793368 -0.003195793368 0.028730273247 -0.181958392262 9.801811218262
354 1540822817.000323057175 -0.004261057824 -0.003195793368 -0.007456851192 0.038307029754 -0.153228119016 9.801811218262
355 1540822817.002321958542 -0.008522115648 -0.005326322280 -0.007456851192 0.052672166377 -0.158016502857 9.797022819519
356 1540822817.004322052002 -0.010652644560 -0.004261057824 -0.006391586736 0.057460546494 -0.105344332755 9.777869224548
357 1540822817.006320953369 -0.009587380104 -0.006391586736 -0.004261057824 0.067037299275 -0.110132709146 9.801811218262
358 1540822817.008320093155 -0.008522115648 -0.005326322280 -0.002130528912 0.028730273247 -0.134074598551 9.758715629578
359 1540822817.010320901871 -0.011717909016 -0.004261057824 -0.005326322280 0.004788378719 -0.143651366234 9.801811218262
360 1540822817.012321949005 -0.009587380104 -0.003195793368 -0.006391586736 0.023941893131 -0.138862982392 9.715620040894
361 1540822817.014322996140 -0.004261057824 -0.004261057824 -0.004261057824 0.038307029754 -0.167593255639 9.739562034607
362 1540822817.016329050064 -0.005326322280 -0.002130528912 -0.006391586736 0.009576757438 -0.153228119016 9.763504028320
363 1540822817.018323898315 -0.005326322280 -0.003195793368 -0.003195793368 0.023941893131 -0.129286229610 9.825753211975
364 1540822817.020324945450 -0.004261057824 -0.003195793368 -0.005326322280 0.086190819740 -0.143651366234 9.768292427063
365 1540822817.022322893143 -0.004261057824 -0.003195793368 -0.005326322280 0.086190819740 -0.143651366234 9.768292427063
366 1540822817.024322986603 -0.007456851192 -0.007456851192 -0.002130528912 -0.004788378719 -0.167593255639 9.806599617004
367 1540822817.026324987411 -0.007456851192 -0.009587380104 -0.001065264456 0.038307029754 -0.124497845769 9.768292427063
368 1540822817.028327941895 -0.010652644560 -0.006391586736 -0.005326322280 0.009576757438 -0.134074598551 9.797022819519
369 1540822817.030323982239 -0.007456851192 -0.002130528912 -0.006391586736 0.043095409870 -0.148439735174 9.749138832092
370 1540822817.032325029373 -0.007456851192 -0.002130528912 -0.006391586736 0.043095409870 -0.148439735174 9.749138832092
371 1540822817.034326076508 -0.010652644560 -0.004261057824 -0.002130528912 0.071825683117 -0.143651366234 9.777869224548
372 1540822817.036324024200 -0.007456851192 -0.003195793368 -0.003195793368 0.019153514877 -0.191535145044 9.758715629578
373 1540822817.038322925568 -0.006391586736 -0.004261057824 -0.000000000000 0.033518649638 -0.129286229610 9.811388015747
374 1540822817.040324926376 -0.008522115648 -0.005326322280 -0.004261057824 0.023941893131 -0.134074598551 9.830541610718
375 1540822817.042325973511 -0.010652644560 -0.006391586736 -0.004261057824 0.028730273247 -0.143651366234 9.792234420776
376 1540822817.044329881668 -0.006391586736 -0.007456851192 -0.004261057824 0.033518649638 -0.124497845769 9.734773635864
377 1540822817.046324968338 -0.007456851192 -0.008522115648 -0.005326322280 0.038307029754 -0.110132709146 9.773080825806
378 1540822817.048321962357 -0.010652644560 -0.009587380104 -0.001065264456 0.000000000000 -0.148439735174 9.758715629578
379 1540822817.050322055817 -0.007456851192 -0.009587380104 -0.004261057824 0.038307029754 -0.148439735174 9.777869224548
380 1540822817.052323102951 -0.007456851192 -0.003195793368 -0.004261057824 0.047883786261 -0.172381639481 9.797022819519
381 1540822817.054323911667 -0.005326322280 -0.001065264456 -0.003195793368 0.047883786261 -0.143651366234 9.749138832092
382 1540822817.056320905685 -0.004261057824 -0.003195793368 -0.004261057824 0.043095409870 -0.177170008421 9.753927230835
383 1540822817.058320045471 -0.003195793368 -0.002130528912 -0.007456851192 0.057460546494 -0.143651366234 9.801811218262
384 1540822817.060326099396 -0.007456851192 -0.005326322280 -0.003195793368 0.033518649638 -0.148439735174 9.830541610718
385 1540822817.062325000763 -0.009587380104 -0.005326322280 -0.002130528912 0.033518649638 -0.138862982392 9.849695205688
386 1540822817.064325094223 -0.008522115648 -0.004261057824 -0.004261057824 -0.004788378719 -0.105344332755 9.773080825806
387 1540822817.066324949265 -0.008522115648 -0.006391586736 -0.003195793368 0.038307029754 -0.153228119016 9.787446022034
388 1540822817.068325996399 -0.007456851192 -0.005326322280 -0.004261057824 0.004788378719 -0.114921092987 9.725196838379
389 1540822817.070324897766 -0.008522115648 -0.003195793368 -0.006391586736 0.004788378719 -0.143651366234 9.763504028320
390 1540822817.072324991226 -0.005326322280 -0.002130528912 -0.002130528912 -0.014365136623 -0.158016502857 9.758715629578
391 1540822817.074322938919 -0.005326322280 -0.001065264456 -0.004261057824 0.019153514877 -0.138862982392 9.773080825806
392 1540822817.076325893402 -0.005326322280 -0.001065264456 -0.003195793368 0.047883786261 -0.153228119016 9.801811218262
393 1540822817.078325033188 -0.007456851192 -0.001065264456 -0.000000000000 0.028730273247 -0.158016502857 9.830541610718
394 1540822817.080327033997 -0.005326322280 -0.003195793368 -0.003195793368 0.033518649638 -0.129286229610 9.859272003174
395 1540822817.082324028015 -0.009587380104 -0.004261057824 -0.001065264456 0.009576757438 -0.129286229610 9.811388015747
396 1540822817.084325075150 -0.011717909016 -0.006391586736 -0.003195793368 0.052672166377 -0.129286229610 9.801811218262
397 1540822817.086325883865 -0.009587380104 -0.005326322280 -0.004261057824 0.000000000000 -0.138862982392 9.782657623291
398 1540822817.088326931000 -0.008522115648 -0.005326322280 -0.004261057824 0.000000000000 -0.105344332755 9.777869224548
399 1540822817.090323925018 -0.009587380104 -0.003195793368 -0.003195793368 0.023941893131 -0.158016502857 9.725196838379
400 1540822817.092324018478 -0.006391586736 -0.005326322280 -0.004261057824 0.009576757438 -0.158016502857 9.758715629578
401 1540822817.094331979752 -0.007456851192 -0.006391586736 -0.002130528912 0.028730273247 -0.138862982392 9.806599617004
402 1540822817.096328020096 -0.008522115648 -0.003195793368 -0.002130528912 0.043095409870 -0.134074598551 9.816176414490
403 1540822817.098325967789 -0.008522115648 -0.000000000000 -0.001065264456 0.033518649638 -0.124497845769 9.844906806946
404 1540822817.100323915482 -0.006391586736 -0.002130528912 -0.002130528912 0.052672166377 -0.119709469378 9.782657623291
405 1540822817.102324962616 -0.008522115648 -0.005326322280 -0.004261057824 0.047883786261 -0.129286229610 9.749138832092
406 1540822817.104321002960 -0.009587380104 -0.003195793368 -0.003195793368 0.057460546494 -0.134074598551 9.830541610718
407 1540822817.106322050095 -0.010652644560 -0.005326322280 -0.003195793368 0.033518649638 -0.105344332755 9.820964813232
408 1540822817.108321905136 -0.010652644560 -0.006391586736 -0.001065264456 0.009576757438 -0.090979196131 9.777869224548
409 1540822817.110321044922 -0.007456851192 -0.004261057824 -0.002130528912 0.038307029754 -0.148439735174 9.753927230835
410 1540822817.112323045731 -0.009587380104 -0.001065264456 -0.004261057824 0.014365136623 -0.114921092987 9.816176414490
411 1540822817.114321947098 -0.004261057824 -0.002130528912 -0.005326322280 0.043095409870 -0.205900281668 9.749138832092
412 1540822817.116322994232 -0.007456851192 -0.004261057824 -0.004261057824 0.047883786261 -0.148439735174 9.868848800659
413 1540822817.118321895599 -0.009587380104 -0.002130528912 -0.005326322280 0.052672166377 -0.138862982392 9.797022819519
414 1540822817.120321989059 -0.008522115648 -0.004261057824 -0.002130528912 0.033518649638 -0.119709469378 9.844906806946
415 1540822817.122322082520 -0.009587380104 -0.006391586736 -0.004261057824 0.014365136623 -0.110132709146 9.811388015747
416 1540822817.124321937561 -0.008522115648 -0.006391586736 -0.003195793368 0.028730273247 -0.143651366234 9.830541610718
417 1540822817.126321077347 -0.007456851192 -0.008522115648 -0.002130528912 0.047883786261 -0.110132709146 9.844906806946
418 1540822817.128324985504 -0.007456851192 -0.006391586736 0.001065264456 -0.019153514877 -0.153228119016 9.739562034607
419 1540822817.130323886871 -0.006391586736 -0.006391586736 -0.003195793368 0.033518649638 -0.134074598551 9.758715629578
420 1540822817.132323980331 -0.008522115648 -0.004261057824 -0.005326322280 0.057460546494 -0.158016502857 9.753927230835
421 1540822817.134325981140 -0.007456851192 -0.005326322280 -0.006391586736 0.028730273247 -0.162804871798 9.777869224548
422 1540822817.136324882507 -0.005326322280 -0.001065264456 -0.005326322280 0.033518649638 -0.124497845769 9.801811218262
423 1540822817.138326883316 -0.004261057824 -0.000000000000 -0.007456851192 0.052672166377 -0.143651366234 9.792234420776
424 1540822817.140324115753 -0.008522115648 -0.005326322280 -0.006391586736 0.043095409870 -0.138862982392 9.801811218262
425 1540822817.142323970795 -0.008522115648 -0.005326322280 -0.001065264456 0.038307029754 -0.100555956364 9.849695205688
426 1540822817.144325971603 -0.009587380104 -0.007456851192 -0.003195793368 0.028730273247 -0.148439735174 9.792234420776
427 1540822817.146327018738 -0.006391586736 -0.006391586736 -0.003195793368 -0.004788378719 -0.138862982392 9.777869224548
428 1540822817.148325920105 -0.007456851192 -0.006391586736 0.001065264456 0.009576757438 -0.143651366234 9.782657623291
429 1540822817.150325059891 -0.005326322280 -0.005326322280 -0.001065264456 0.028730273247 -0.110132709146 9.729985237122
430 1540822817.152323961258 -0.004261057824 -0.001065264456 -0.001065264456 0.067037299275 -0.153228119016 9.782657623291
431 1540822817.154325962067 -0.006391586736 -0.003195793368 -0.004261057824 0.052672166377 -0.167593255639 9.840118408203
432 1540822817.156323909760 -0.005326322280 -0.000000000000 -0.003195793368 0.062248922884 -0.138862982392 9.806599617004
433 1540822817.158324956894 -0.004261057824 -0.000000000000 -0.004261057824 0.019153514877 -0.124497845769 9.849695205688
434 1540822817.160306930542 -0.006391586736 -0.005326322280 -0.004261057824 0.019153514877 -0.110132709146 9.792234420776
435 1540822817.162317991257 -0.009587380104 -0.005326322280 -0.005326322280 0.023941893131 -0.114921092987 9.792234420776
436 1540822817.164334058762 -0.007456851192 -0.004261057824 -0.004261057824 -0.004788378719 -0.153228119016 9.725196838379
437 1540822817.166326045990 -0.013848437928 -0.005326322280 -0.002130528912 0.000000000000 -0.138862982392 9.720408439636
438 1540822817.168323993683 -0.011717909016 -0.006391586736 -0.001065264456 0.028730273247 -0.124497845769 9.773080825806
439 1540822817.170320987701 -0.007456851192 -0.003195793368 -0.000000000000 0.019153514877 -0.177170008421 9.720408439636
440 1540822817.172322034836 -0.004261057824 -0.003195793368 -0.006391586736 0.014365136623 -0.172381639481 9.768292427063
441 1540822817.174324035645 -0.005326322280 -0.001065264456 -0.006391586736 0.028730273247 -0.143651366234 9.792234420776
442 1540822817.176321983337 -0.006391586736 -0.001065264456 -0.003195793368 0.043095409870 -0.172381639481 9.854483604431
443 1540822817.178322076797 -0.006391586736 -0.006391586736 -0.002130528912 0.038307029754 -0.114921092987 9.749138832092
444 1540822817.180320978165 -0.007456851192 -0.004261057824 -0.004261057824 0.038307029754 -0.124497845769 9.782657623291
445 1540822817.182321071625 -0.007456851192 -0.005326322280 -0.001065264456 0.028730273247 -0.143651366234 9.825753211975
446 1540822817.184320926666 -0.007456851192 -0.004261057824 -0.003195793368 0.047883786261 -0.119709469378 9.777869224548
447 1540822817.186321973801 -0.009587380104 -0.003195793368 -0.003195793368 0.019153514877 -0.181958392262 9.739562034607
448 1540822817.188321113586 -0.006391586736 -0.002130528912 -0.002130528912 0.019153514877 -0.134074598551 9.768292427063
449 1540822817.190324068069 -0.002130528912 -0.003195793368 -0.003195793368 0.028730273247 -0.138862982392 9.782657623291
450 1540822817.192322969437 -0.008522115648 -0.000000000000 -0.004261057824 0.028730273247 -0.162804871798 9.763504028320
451 1540822817.194324016571 -0.006391586736 -0.001065264456 -0.003195793368 0.014365136623 -0.162804871798 9.792234420776
452 1540822817.196322917938 -0.005326322280 -0.002130528912 -0.004261057824 0.052672166377 -0.138862982392 9.768292427063
453 1540822817.198328018188 -0.007456851192 -0.004261057824 -0.002130528912 0.067037299275 -0.119709469378 9.892790794373
454 1540822817.200321912766 -0.007456851192 -0.004261057824 -0.005326322280 0.014365136623 -0.134074598551 9.782657623291
455 1540822817.202322006226 -0.011717909016 -0.005326322280 -0.006391586736 0.019153514877 -0.124497845769 9.835330009460
456 1540822817.204322099686 -0.011717909016 -0.006391586736 -0.006391586736 0.047883786261 -0.134074598551 9.787446022034
457 1540822817.206321954727 -0.010652644560 -0.004261057824 -0.003195793368 0.062248922884 -0.172381639481 9.729985237122
458 1540822817.208322048187 -0.006391586736 -0.001065264456 -0.003195793368 0.023941893131 -0.138862982392 9.792234420776
459 1540822817.210321903229 -0.003195793368 -0.004261057824 -0.002130528912 0.043095409870 -0.167593255639 9.797022819519
460 1540822817.212323904037 -0.003195793368 -0.001065264456 -0.002130528912 0.047883786261 -0.172381639481 9.825753211975
461 1540822817.214320898056 -0.006391586736 -0.003195793368 -0.003195793368 0.000000000000 -0.153228119016 9.801811218262
462 1540822817.216325044632 -0.006391586736 -0.003195793368 -0.004261057824 0.043095409870 -0.158016502857 9.825753211975
463 1540822817.218323945999 -0.006391586736 -0.005326322280 -0.005326322280 0.004788378719 -0.114921092987 9.792234420776
464 1540822817.220324039459 -0.002130528912 -0.005326322280 -0.005326322280 0.028730273247 -0.148439735174 9.897579193115
465 1540822817.222323894501 -0.007456851192 -0.005326322280 -0.005326322280 0.047883786261 -0.158016502857 9.806599617004
466 1540822817.224323034286 -0.007456851192 -0.007456851192 -0.005326322280 0.014365136623 -0.134074598551 9.753927230835
467 1540822817.226322889328 -0.008522115648 -0.006391586736 -0.004261057824 0.019153514877 -0.143651366234 9.782657623291
468 1540822817.228321075439 -0.007456851192 -0.004261057824 -0.006391586736 0.033518649638 -0.153228119016 9.777869224548
469 1540822817.230320930481 -0.004261057824 -0.002130528912 -0.002130528912 0.000000000000 -0.119709469378 9.768292427063
470 1540822817.232326030731 -0.008522115648 -0.001065264456 -0.004261057824 0.057460546494 -0.134074598551 9.849695205688
471 1540822817.234324932098 -0.005326322280 0.002130528912 -0.003195793368 0.009576757438 -0.177170008421 9.797022819519
472 1540822817.236325025558 -0.007456851192 -0.000000000000 -0.002130528912 0.038307029754 -0.158016502857 9.773080825806
473 1540822817.238323926926 -0.008522115648 -0.001065264456 -0.004261057824 0.033518649638 -0.143651366234 9.816176414490
474 1540822817.240324974060 -0.008522115648 -0.008522115648 -0.003195793368 0.043095409870 -0.100555956364 9.816176414490
475 1540822817.242324113846 -0.009587380104 -0.008522115648 -0.002130528912 0.043095409870 -0.143651366234 9.835330009460
476 1540822817.244323968887 -0.010652644560 -0.007456851192 -0.004261057824 0.014365136623 -0.095767572522 9.753927230835
477 1540822817.246325016022 -0.007456851192 -0.006391586736 -0.004261057824 0.028730273247 -0.167593255639 9.773080825806
478 1540822817.248323917389 -0.004261057824 -0.002130528912 -0.003195793368 0.028730273247 -0.110132709146 9.773080825806
479 1540822817.250328063965 -0.005326322280 -0.003195793368 -0.002130528912 0.028730273247 -0.148439735174 9.787446022034
480 1540822817.252329111099 -0.003195793368 -0.004261057824 -0.004261057824 0.062248922884 -0.134074598551 9.825753211975
481 1540822817.254323959351 -0.005326322280 -0.001065264456 -0.003195793368 0.033518649638 -0.143651366234 9.888002395630
482 1540822817.256324052811 -0.005326322280 -0.001065264456 -0.003195793368 0.071825683117 -0.153228119016 9.816176414490
483 1540822817.258321046829 -0.005326322280 -0.005326322280 -0.007456851192 0.028730273247 -0.134074598551 9.835330009460
484 1540822817.260322093964 -0.005326322280 -0.005326322280 -0.007456851192 0.028730273247 -0.134074598551 9.835330009460
485 1540822817.262321949005 -0.006391586736 -0.003195793368 -0.006391586736 0.019153514877 -0.114921092987 9.844906806946
486 1540822817.264324903488 -0.007456851192 -0.007456851192 -0.002130528912 0.009576757438 -0.153228119016 9.797022819519
487 1540822817.266324996948 -0.008522115648 -0.005326322280 0.001065264456 0.062248922884 -0.153228119016 9.758715629578
488 1540822817.268326044083 -0.009587380104 -0.006391586736 -0.004261057824 0.043095409870 -0.129286229610 9.720408439636
489 1540822817.270325899124 -0.006391586736 -0.003195793368 -0.002130528912 0.067037299275 -0.167593255639 9.720408439636
490 1540822817.272326946259 -0.004261057824 -0.000000000000 -0.005326322280 0.038307029754 -0.172381639481 9.758715629578
491 1540822817.274326086044 -0.008522115648 -0.002130528912 -0.005326322280 0.014365136623 -0.162804871798 9.792234420776
492 1540822817.276329040527 -0.007456851192 -0.005326322280 -0.003195793368 0.038307029754 -0.148439735174 9.797022819519
493 1540822817.278325080872 -0.008522115648 -0.002130528912 -0.003195793368 0.047883786261 -0.134074598551 9.811388015747
494 1540822817.280323982239 -0.009587380104 -0.006391586736 -0.003195793368 0.019153514877 -0.119709469378 9.777869224548
495 1540822817.282322883606 -0.008522115648 -0.006391586736 -0.003195793368 0.043095409870 -0.119709469378 9.825753211975
496 1540822817.284322977066 -0.006391586736 -0.006391586736 -0.003195793368 0.062248922884 -0.143651366234 9.715620040894
497 1540822817.286323070526 -0.006391586736 -0.007456851192 -0.004261057824 0.038307029754 -0.114921092987 9.734773635864
498 1540822817.288322925568 -0.004261057824 -0.005326322280 -0.007456851192 0.023941893131 -0.129286229610 9.806599617004
499 1540822817.290323019028 -0.005326322280 -0.002130528912 -0.002130528912 0.038307029754 -0.162804871798 9.739562034607
500 1540822817.292323112488 -0.006391586736 -0.002130528912 -0.003195793368 0.043095409870 -0.148439735174 9.820964813232
501 1540822817.294325113297 -0.005326322280 -0.003195793368 -0.004261057824 0.004788378719 -0.148439735174 9.854483604431
502 1540822817.296324968338 -0.005326322280 -0.006391586736 -0.007456851192 0.047883786261 -0.129286229610 9.840118408203
503 1540822817.298330068588 -0.006391586736 -0.005326322280 -0.007456851192 -0.009576757438 -0.143651366234 9.849695205688
504 1540822817.300324916840 -0.011717909016 -0.005326322280 -0.003195793368 0.052672166377 -0.134074598551 9.816176414490
505 1540822817.302325963974 -0.008522115648 -0.003195793368 -0.002130528912 0.043095409870 -0.153228119016 9.744350433350
506 1540822817.304326057434 -0.005326322280 -0.005326322280 0.001065264456 0.004788378719 -0.177170008421 9.777869224548
507 1540822817.306324958801 -0.009587380104 -0.001065264456 -0.001065264456 -0.009576757438 -0.105344332755 9.768292427063
508 1540822817.308324098587 -0.008522115648 -0.002130528912 -0.002130528912 0.023941893131 -0.158016502857 9.725196838379
509 1540822817.310323953629 -0.006391586736 0.001065264456 -0.006391586736 0.038307029754 -0.153228119016 9.797022819519
510 1540822817.312321901321 -0.005326322280 -0.000000000000 -0.006391586736 -0.009576757438 -0.129286229610 9.844906806946
511 1540822817.314323902130 -0.006391586736 -0.002130528912 -0.006391586736 0.014365136623 -0.138862982392 9.797022819519
512 1540822817.316323041916 -0.006391586736 -0.005326322280 -0.003195793368 0.052672166377 -0.124497845769 9.787446022034
513 1540822817.318322896957 -0.010652644560 -0.006391586736 -0.006391586736 0.033518649638 -0.143651366234 9.825753211975
514 1540822817.320321083069 -0.011717909016 -0.007456851192 -0.004261057824 -0.004788378719 -0.143651366234 9.758715629578
515 1540822817.322330951691 -0.007456851192 -0.005326322280 -0.000000000000 0.004788378719 -0.100555956364 9.763504028320
516 1540822817.324331998825 -0.006391586736 -0.006391586736 -0.000000000000 0.047883786261 -0.153228119016 9.811388015747
517 1540822817.326325893402 -0.008522115648 -0.003195793368 -0.003195793368 0.062248922884 -0.167593255639 9.758715629578
518 1540822817.328325033188 -0.005326322280 -0.001065264456 -0.001065264456 0.028730273247 -0.148439735174 9.782657623291
519 1540822817.330323934555 -0.001065264456 -0.001065264456 -0.004261057824 0.043095409870 -0.143651366234 9.835330009460
520 1540822817.332325935364 -0.003195793368 -0.001065264456 -0.002130528912 0.038307029754 -0.162804871798 9.864060401917
521 1540822817.334325075150 -0.005326322280 -0.004261057824 -0.002130528912 0.009576757438 -0.153228119016 9.806599617004
522 1540822817.336327075958 -0.006391586736 -0.003195793368 -0.003195793368 0.062248922884 -0.134074598551 9.825753211975
523 1540822817.338325023651 -0.008522115648 -0.002130528912 -0.002130528912 0.052672166377 -0.167593255639 9.797022819519
524 1540822817.340325117111 -0.008522115648 -0.004261057824 -0.001065264456 0.028730273247 -0.110132709146 9.820964813232
525 1540822817.342322111130 -0.007456851192 -0.005326322280 -0.004261057824 0.014365136623 -0.143651366234 9.753927230835
526 1540822817.344325065613 -0.007456851192 -0.010652644560 -0.005326322280 -0.019153514877 -0.138862982392 9.787446022034
527 1540822817.346322059631 -0.008522115648 -0.005326322280 -0.003195793368 0.076614059508 -0.110132709146 9.744350433350
528 1540822817.348320960999 -0.004261057824 -0.003195793368 -0.005326322280 0.043095409870 -0.143651366234 9.749138832092
529 1540822817.350321054459 -0.007456851192 -0.002130528912 -0.004261057824 0.052672166377 -0.153228119016 9.811388015747
530 1540822817.352339982986 -0.005326322280 -0.002130528912 -0.003195793368 0.038307029754 -0.148439735174 9.835330009460
531 1540822817.354325056076 -0.006391586736 -0.003195793368 -0.003195793368 0.047883786261 -0.201111912727 9.854483604431
532 1540822817.356326103210 -0.005326322280 -0.005326322280 -0.001065264456 0.052672166377 -0.158016502857 9.787446022034
533 1540822817.358325004578 -0.005326322280 -0.006391586736 -0.003195793368 0.057460546494 -0.167593255639 9.820964813232
534 1540822817.360318899155 -0.009587380104 -0.006391586736 -0.002130528912 0.004788378719 -0.153228119016 9.835330009460
535 1540822817.362334966660 -0.009587380104 -0.007456851192 -0.004261057824 0.019153514877 -0.114921092987 9.797022819519
536 1540822817.364326953888 -0.006391586736 -0.009587380104 -0.002130528912 0.009576757438 -0.134074598551 9.744350433350
537 1540822817.366326093674 -0.005326322280 -0.004261057824 -0.000000000000 0.000000000000 -0.124497845769 9.787446022034
538 1540822817.368324995041 -0.003195793368 -0.002130528912 -0.002130528912 0.043095409870 -0.158016502857 9.849695205688
539 1540822817.370325088501 -0.005326322280 -0.002130528912 -0.006391586736 0.028730273247 -0.153228119016 9.878425598145
540 1540822817.372325897217 -0.005326322280 -0.000000000000 -0.003195793368 0.023941893131 -0.105344332755 9.835330009460
541 1540822817.374324083328 -0.004261057824 -0.003195793368 -0.005326322280 0.038307029754 -0.114921092987 9.864060401917
542 1540822817.376321077347 -0.005326322280 -0.005326322280 -0.006391586736 0.023941893131 -0.124497845769 9.801811218262
543 1540822817.378320932388 -0.007456851192 -0.004261057824 -0.004261057824 0.057460546494 -0.119709469378 9.816176414490
544 1540822817.380321979523 -0.008522115648 -0.007456851192 -0.004261057824 0.028730273247 -0.119709469378 9.792234420776
545 1540822817.382319927216 -0.008522115648 -0.006391586736 -0.004261057824 0.028730273247 -0.148439735174 9.773080825806
546 1540822817.384320974350 -0.012783173472 -0.004261057824 -0.003195793368 0.023941893131 -0.138862982392 9.749138832092
547 1540822817.386321067810 -0.005326322280 -0.006391586736 -0.006391586736 0.023941893131 -0.143651366234 9.744350433350
548 1540822817.388319969177 -0.004261057824 -0.004261057824 -0.001065264456 0.033518649638 -0.167593255639 9.753927230835
549 1540822817.390322923660 -0.004261057824 -0.004261057824 -0.001065264456 0.033518649638 -0.167593255639 9.753927230835
550 1540822817.392323970795 -0.009587380104 -0.003195793368 -0.001065264456 0.062248922884 -0.143651366234 9.787446022034
551 1540822817.394324064255 -0.008522115648 -0.004261057824 -0.004261057824 0.071825683117 -0.143651366234 9.830541610718
552 1540822817.396322965622 -0.006391586736 -0.007456851192 -0.003195793368 0.052672166377 -0.143651366234 9.792234420776
553 1540822817.398323059082 -0.009587380104 -0.009587380104 -0.003195793368 0.067037299275 -0.167593255639 9.758715629578
554 1540822817.400322914124 -0.008522115648 -0.009587380104 -0.003195793368 0.014365136623 -0.181958392262 9.787446022034
555 1540822817.402323007584 -0.010652644560 -0.008522115648 -0.002130528912 0.038307029754 -0.110132709146 9.758715629578
556 1540822817.404326915741 -0.007456851192 -0.005326322280 -0.001065264456 0.052672166377 -0.124497845769 9.715620040894
557 1540822817.406322956085 -0.005326322280 -0.006391586736 -0.003195793368 0.033518649638 -0.138862982392 9.739562034607
558 1540822817.408323049545 -0.001065264456 -0.004261057824 -0.002130528912 0.038307029754 -0.186746776104 9.744350433350
559 1540822817.410321950912 -0.003195793368 -0.003195793368 -0.005326322280 0.009576757438 -0.162804871798 9.849695205688
560 1540822817.412322044373 -0.007456851192 -0.002130528912 -0.003195793368 0.038307029754 -0.205900281668 9.806599617004
561 1540822817.414330005646 -0.006391586736 -0.003195793368 -0.006391586736 0.014365136623 -0.201111912727 9.844906806946
562 1540822817.416323900223 -0.006391586736 -0.002130528912 -0.002130528912 0.023941893131 -0.148439735174 9.820964813232
563 1540822817.418324947357 -0.011717909016 -0.008522115648 -0.004261057824 0.028730273247 -0.076614059508 9.849695205688
564 1540822817.420327901840 -0.011717909016 -0.005326322280 -0.003195793368 0.052672166377 -0.081402435899 9.840118408203
565 1540822817.422324895859 -0.008522115648 -0.004261057824 -0.002130528912 0.043095409870 -0.129286229610 9.753927230835
566 1540822817.424325942993 -0.008522115648 -0.004261057824 -0.002130528912 0.028730273247 -0.172381639481 9.720408439636
567 1540822817.426321983337 -0.007456851192 -0.003195793368 -0.002130528912 0.043095409870 -0.143651366234 9.744350433350
568 1540822817.428323984146 -0.006391586736 -0.004261057824 -0.004261057824 0.033518649638 -0.177170008421 9.773080825806
569 1540822817.430324077606 -0.005326322280 -0.001065264456 -0.006391586736 0.052672166377 -0.158016502857 9.868848800659
570 1540822817.432324886322 -0.007456851192 -0.002130528912 -0.002130528912 0.028730273247 -0.105344332755 9.873637199402
571 1540822817.434322118759 -0.005326322280 -0.002130528912 -0.000000000000 0.043095409870 -0.138862982392 9.840118408203
572 1540822817.436326026917 -0.005326322280 -0.002130528912 -0.000000000000 0.043095409870 -0.138862982392 9.840118408203
573 1540822817.438322067261 -0.010652644560 -0.005326322280 -0.005326322280 0.052672166377 -0.129286229610 9.758715629578
574 1540822817.440320968628 -0.008522115648 -0.006391586736 -0.001065264456 0.019153514877 -0.186746776104 9.758715629578
575 1540822817.442322015762 -0.006391586736 -0.005326322280 -0.004261057824 -0.004788378719 -0.114921092987 9.744350433350
576 1540822817.444322109222 -0.004261057824 -0.005326322280 -0.003195793368 0.038307029754 -0.129286229610 9.782657623291
577 1540822817.446321964264 -0.006391586736 -0.001065264456 -0.003195793368 0.014365136623 -0.129286229610 9.811388015747
578 1540822817.448322057724 -0.008522115648 0.001065264456 -0.003195793368 -0.004788378719 -0.110132709146 9.787446022034
579 1540822817.450330972672 -0.008522115648 -0.002130528912 -0.004261057824 0.043095409870 -0.138862982392 9.763504028320
580 1540822817.452327013016 -0.005326322280 -0.003195793368 -0.005326322280 0.038307029754 -0.162804871798 9.763504028320
581 1540822817.454334020615 -0.004261057824 -0.005326322280 -0.004261057824 0.038307029754 -0.143651366234 9.792234420776
582 1540822817.456326961517 -0.005326322280 -0.006391586736 -0.003195793368 0.052672166377 -0.114921092987 9.787446022034
583 1540822817.458323955536 -0.011717909016 -0.006391586736 -0.005326322280 0.023941893131 -0.134074598551 9.868848800659
584 1540822817.460325956345 -0.011717909016 -0.004261057824 -0.003195793368 0.019153514877 -0.114921092987 9.835330009460
585 1540822817.462325096130 -0.006391586736 -0.008522115648 -0.006391586736 -0.004788378719 -0.134074598551 9.864060401917
586 1540822817.464323043823 -0.005326322280 -0.008522115648 -0.000000000000 0.004788378719 -0.114921092987 9.782657623291
587 1540822817.466325998306 -0.005326322280 -0.008522115648 -0.000000000000 0.004788378719 -0.114921092987 9.782657623291
588 1540822817.468324899673 -0.006391586736 -0.001065264456 -0.002130528912 0.028730273247 -0.186746776104 9.782657623291
589 1540822817.470329999924 -0.006391586736 -0.000000000000 -0.005326322280 0.062248922884 -0.158016502857 9.840118408203
590 1540822817.472326040268 -0.007456851192 -0.000000000000 -0.004261057824 0.081402435899 -0.153228119016 9.830541610718
591 1540822817.474327087402 -0.005326322280 -0.005326322280 -0.004261057824 0.052672166377 -0.124497845769 9.816176414490
592 1540822817.476325988770 -0.007456851192 -0.007456851192 -0.002130528912 0.043095409870 -0.129286229610 9.835330009460
593 1540822817.478323936462 -0.007456851192 -0.004261057824 -0.003195793368 0.019153514877 -0.162804871798 9.797022819519
594 1540822817.480324029922 -0.011717909016 -0.005326322280 -0.003195793368 0.038307029754 -0.162804871798 9.739562034607
595 1540822817.482331037521 -0.008522115648 -0.006391586736 -0.002130528912 0.033518649638 -0.177170008421 9.753927230835
596 1540822817.484324932098 -0.005326322280 -0.002130528912 -0.001065264456 0.014365136623 -0.134074598551 9.734773635864
597 1540822817.486323118210 -0.004261057824 -0.002130528912 -0.004261057824 0.033518649638 -0.172381639481 9.749138832092
598 1540822817.488322019577 -0.005326322280 -0.004261057824 -0.003195793368 0.057460546494 -0.172381639481 9.787446022034
599 1540822817.490322113037 -0.006391586736 -0.002130528912 -0.005326322280 0.076614059508 -0.124497845769 9.801811218262
600 1540822817.492321968079 -0.007456851192 -0.002130528912 -0.005326322280 0.067037299275 -0.138862982392 9.782657623291
601 1540822817.494323968887 -0.003195793368 -0.004261057824 -0.003195793368 0.081402435899 -0.105344332755 9.844906806946
602 1540822817.496320962906 -0.005326322280 -0.005326322280 -0.002130528912 0.047883786261 -0.124497845769 9.859272003174
603 1540822817.498322010040 -0.005326322280 -0.006391586736 -0.002130528912 0.023941893131 -0.114921092987 9.739562034607
604 1540822817.500323057175 -0.006391586736 -0.004261057824 -0.001065264456 -0.009576757438 -0.124497845769 9.787446022034
605 1540822817.502324104309 -0.009587380104 -0.006391586736 -0.003195793368 -0.028730273247 -0.143651366234 9.753927230835
606 1540822817.504321098328 -0.006391586736 -0.004261057824 -0.004261057824 0.014365136623 -0.138862982392 9.725196838379
607 1540822817.506329059601 -0.003195793368 -0.002130528912 -0.002130528912 0.038307029754 -0.162804871798 9.816176414490
608 1540822817.508326053619 -0.001065264456 -0.001065264456 -0.003195793368 0.052672166377 -0.124497845769 9.749138832092
609 1540822817.510324954987 -0.005326322280 -0.002130528912 -0.005326322280 0.009576757438 -0.134074598551 9.849695205688
610 1540822817.512324094772 -0.008522115648 -0.006391586736 -0.004261057824 0.047883786261 -0.186746776104 9.835330009460
611 1540822817.514324903488 -0.007456851192 -0.004261057824 -0.006391586736 0.086190819740 -0.129286229610 9.811388015747
612 1540822817.516324996948 -0.009587380104 -0.005326322280 -0.002130528912 0.062248922884 -0.162804871798 9.777869224548
613 1540822817.518325090408 -0.005326322280 -0.005326322280 -0.001065264456 0.057460546494 -0.134074598551 9.782657623291
614 1540822817.520323991776 -0.009587380104 -0.006391586736 -0.000000000000 0.043095409870 -0.153228119016 9.739562034607
615 1540822817.522325992584 -0.006391586736 -0.005326322280 0.001065264456 0.023941893131 -0.105344332755 9.739562034607
616 1540822817.524323940277 -0.008522115648 -0.004261057824 -0.001065264456 -0.014365136623 -0.138862982392 9.763504028320
617 1540822817.526324033737 -0.010652644560 -0.001065264456 -0.003195793368 -0.004788378719 -0.162804871798 9.782657623291
618 1540822817.528330087662 -0.007456851192 -0.003195793368 -0.003195793368 0.057460546494 -0.138862982392 9.758715629578
619 1540822817.530324935913 -0.007456851192 -0.001065264456 -0.003195793368 0.062248922884 -0.114921092987 9.787446022034
620 1540822817.532325029373 -0.009587380104 -0.004261057824 -0.006391586736 0.043095409870 -0.134074598551 9.806599617004
621 1540822817.534323930740 -0.008522115648 -0.005326322280 -0.006391586736 0.033518649638 -0.124497845769 9.811388015747
622 1540822817.536324977875 -0.006391586736 -0.004261057824 -0.005326322280 0.009576757438 -0.124497845769 9.806599617004
623 1540822817.538320064545 -0.005326322280 -0.005326322280 -0.002130528912 0.047883786261 -0.129286229610 9.725196838379
624 1540822817.540322065353 -0.005326322280 -0.007456851192 -0.002130528912 0.028730273247 -0.129286229610 9.792234420776
625 1540822817.542321920395 -0.009587380104 -0.004261057824 -0.005326322280 0.086190819740 -0.143651366234 9.706043243408
626 1540822817.544321060181 -0.005326322280 -0.004261057824 -0.005326322280 0.028730273247 -0.162804871798 9.777869224548
627 1540822817.546323060989 -0.008522115648 -0.005326322280 -0.001065264456 0.014365136623 -0.105344332755 9.792234420776
628 1540822817.548321008682 -0.008522115648 -0.002130528912 -0.005326322280 0.009576757438 -0.114921092987 9.806599617004
629 1540822817.550321102142 -0.006391586736 -0.002130528912 -0.006391586736 0.023941893131 -0.134074598551 9.830541610718
630 1540822817.552324056625 -0.007456851192 -0.002130528912 -0.007456851192 0.038307029754 -0.138862982392 9.806599617004
631 1540822817.554323911667 -0.007456851192 -0.002130528912 -0.005326322280 0.043095409870 -0.119709469378 9.787446022034
632 1540822817.556323051453 -0.004261057824 -0.005326322280 -0.006391586736 0.023941893131 -0.134074598551 9.744350433350
633 1540822817.558326959610 -0.006391586736 -0.006391586736 -0.007456851192 0.043095409870 -0.153228119016 9.734773635864
634 1540822817.560322999954 -0.009587380104 -0.007456851192 -0.005326322280 0.033518649638 -0.138862982392 9.782657623291
635 1540822817.562314033508 -0.008522115648 -0.004261057824 -0.002130528912 0.038307029754 -0.153228119016 9.763504028320
636 1540822817.564325094223 -0.005326322280 -0.000000000000 -0.005326322280 0.014365136623 -0.172381639481 9.758715629578
637 1540822817.566324949265 -0.006391586736 -0.002130528912 -0.005326322280 0.038307029754 -0.143651366234 9.782657623291
638 1540822817.568321943283 -0.005326322280 -0.002130528912 -0.003195793368 0.033518649638 -0.153228119016 9.806599617004
639 1540822817.570322990417 -0.008522115648 -0.002130528912 -0.003195793368 0.043095409870 -0.138862982392 9.801811218262
640 1540822817.572324037552 -0.004261057824 -0.004261057824 -0.003195793368 0.014365136623 -0.134074598551 9.883213996887
641 1540822817.574330091476 -0.007456851192 -0.006391586736 -0.004261057824 0.028730273247 -0.162804871798 9.801811218262
642 1540822817.576323986053 -0.010652644560 -0.004261057824 -0.003195793368 0.023941893131 -0.114921092987 9.715620040894
643 1540822817.578322887421 -0.010652644560 -0.008522115648 -0.003195793368 0.019153514877 -0.119709469378 9.792234420776
644 1540822817.580327033997 -0.008522115648 -0.004261057824 -0.001065264456 -0.023941893131 -0.114921092987 9.749138832092
645 1540822817.582324028015 -0.008522115648 -0.004261057824 -0.002130528912 0.000000000000 -0.134074598551 9.792234420776
646 1540822817.584325075150 -0.006391586736 -0.003195793368 -0.002130528912 0.071825683117 -0.181958392262 9.729985237122
647 1540822817.586323976517 -0.004261057824 -0.003195793368 -0.003195793368 0.052672166377 -0.167593255639 9.830541610718
648 1540822817.588324069977 -0.005326322280 -0.002130528912 -0.003195793368 0.067037299275 -0.124497845769 9.840118408203
649 1540822817.590325117111 -0.005326322280 -0.003195793368 -0.004261057824 0.052672166377 -0.129286229610 9.892790794373
650 1540822817.592324972153 -0.005326322280 -0.002130528912 -0.003195793368 0.038307029754 -0.148439735174 9.854483604431
651 1540822817.594325065613 -0.005326322280 -0.002130528912 -0.005326322280 0.023941893131 -0.134074598551 9.830541610718
652 1540822817.596323966980 -0.006391586736 -0.006391586736 -0.004261057824 0.004788378719 -0.138862982392 9.797022819519
653 1540822817.598325014114 -0.008522115648 -0.008522115648 -0.001065264456 0.000000000000 -0.138862982392 9.758715629578
654 1540822817.600323915482 -0.009587380104 -0.005326322280 -0.002130528912 0.009576757438 -0.158016502857 9.806599617004
655 1540822817.602323055267 -0.005326322280 -0.006391586736 -0.002130528912 0.057460546494 -0.138862982392 9.753927230835
656 1540822817.604321002960 -0.006391586736 -0.004261057824 -0.003195793368 0.009576757438 -0.162804871798 9.749138832092
657 1540822817.606322050095 -0.008522115648 -0.003195793368 -0.006391586736 0.038307029754 -0.153228119016 9.811388015747
658 1540822817.608321905136 -0.005326322280 -0.003195793368 -0.003195793368 0.033518649638 -0.129286229610 9.835330009460
659 1540822817.610323905945 -0.005326322280 -0.005326322280 -0.003195793368 0.019153514877 -0.177170008421 9.816176414490
660 1540822817.612322092056 -0.006391586736 -0.004261057824 -0.005326322280 0.052672166377 -0.167593255639 9.844906806946
661 1540822817.614320039749 -0.009587380104 -0.006391586736 -0.005326322280 0.067037299275 -0.119709469378 9.797022819519
662 1540822817.616323947906 -0.010652644560 -0.005326322280 -0.003195793368 -0.038307029754 -0.124497845769 9.835330009460
663 1540822817.618321895599 -0.008522115648 -0.005326322280 -0.004261057824 0.028730273247 -0.105344332755 9.758715629578
664 1540822817.620322942734 -0.005326322280 -0.007456851192 -0.002130528912 0.014365136623 -0.143651366234 9.720408439636
665 1540822817.622320890427 -0.005326322280 -0.003195793368 -0.005326322280 0.019153514877 -0.110132709146 9.725196838379
666 1540822817.624322891235 -0.005326322280 -0.001065264456 -0.003195793368 0.009576757438 -0.153228119016 9.739562034607
667 1540822817.626321077347 -0.005326322280 -0.001065264456 -0.004261057824 0.004788378719 -0.143651366234 9.797022819519
668 1540822817.628325939178 -0.006391586736 -0.000000000000 -0.001065264456 0.033518649638 -0.181958392262 9.811388015747
669 1540822817.630325078964 -0.005326322280 -0.000000000000 -0.004261057824 0.057460546494 -0.143651366234 9.859272003174
670 1540822817.632325887680 -0.006391586736 -0.001065264456 -0.005326322280 0.023941893131 -0.114921092987 9.854483604431
671 1540822817.634325027466 -0.007456851192 -0.004261057824 -0.004261057824 0.047883786261 -0.100555956364 9.840118408203
672 1540822817.636324882507 -0.006391586736 -0.008522115648 -0.001065264456 0.023941893131 -0.129286229610 9.782657623291
673 1540822817.638325929642 -0.006391586736 -0.005326322280 -0.004261057824 0.033518649638 -0.148439735174 9.758715629578
674 1540822817.640324115753 -0.008522115648 -0.003195793368 -0.001065264456 0.009576757438 -0.148439735174 9.734773635864
675 1540822817.642324924469 -0.006391586736 -0.004261057824 -0.002130528912 0.033518649638 -0.148439735174 9.773080825806
676 1540822817.644325971603 -0.006391586736 -0.002130528912 -0.002130528912 0.014365136623 -0.138862982392 9.701254844666
677 1540822817.646323919296 -0.006391586736 -0.002130528912 -0.002130528912 0.014365136623 -0.138862982392 9.701254844666
678 1540822817.648324966431 -0.007456851192 -0.003195793368 -0.005326322280 0.038307029754 -0.090979196131 9.840118408203
679 1540822817.650325059891 -0.004261057824 -0.002130528912 -0.002130528912 0.038307029754 -0.110132709146 9.816176414490
680 1540822817.652327060699 -0.004261057824 -0.003195793368 -0.003195793368 0.057460546494 -0.129286229610 9.797022819519
681 1540822817.654324054718 -0.009587380104 -0.005326322280 -0.006391586736 0.043095409870 -0.114921092987 9.797022819519
682 1540822817.656322956085 -0.010652644560 -0.004261057824 -0.004261057824 0.023941893131 -0.129286229610 9.768292427063
683 1540822817.658322095871 -0.008522115648 -0.006391586736 -0.001065264456 0.038307029754 -0.119709469378 9.801811218262
684 1540822817.660339117050 -0.008522115648 -0.004261057824 -0.004261057824 0.004788378719 -0.148439735174 9.734773635864
685 1540822817.662326097488 -0.008522115648 -0.003195793368 -0.005326322280 0.009576757438 -0.158016502857 9.763504028320
686 1540822817.664320945740 -0.003195793368 -0.001065264456 -0.003195793368 0.028730273247 -0.167593255639 9.729985237122
687 1540822817.666322946548 -0.006391586736 -0.002130528912 -0.006391586736 0.043095409870 -0.143651366234 9.768292427063
688 1540822817.668322086334 -0.007456851192 -0.000000000000 -0.006391586736 0.009576757438 -0.143651366234 9.787446022034
689 1540822817.670325040817 -0.006391586736 -0.004261057824 -0.003195793368 0.033518649638 -0.162804871798 9.797022819519
690 1540822817.672324895859 -0.007456851192 -0.005326322280 -0.001065264456 0.023941893131 -0.162804871798 9.849695205688
691 1540822817.674325942993 -0.006391586736 -0.006391586736 -0.007456851192 0.023941893131 -0.162804871798 9.806599617004
692 1540822817.676323890686 -0.008522115648 -0.007456851192 -0.003195793368 0.004788378719 -0.119709469378 9.787446022034
693 1540822817.678327083588 -0.007456851192 -0.005326322280 -0.004261057824 0.000000000000 -0.153228119016 9.744350433350
694 1540822817.680325031281 -0.007456851192 -0.004261057824 -0.003195793368 0.004788378719 -0.162804871798 9.701254844666
695 1540822817.682323932648 -0.005326322280 -0.004261057824 -0.002130528912 0.004788378719 -0.153228119016 9.787446022034
696 1540822817.684324026108 -0.004261057824 -0.003195793368 -0.004261057824 0.004788378719 -0.124497845769 9.816176414490
697 1540822817.686325073242 -0.005326322280 -0.002130528912 -0.002130528912 0.023941893131 -0.167593255639 9.792234420776
698 1540822817.688324928284 -0.009587380104 -0.000000000000 -0.007456851192 0.033518649638 -0.162804871798 9.897579193115
699 1540822817.690325975418 -0.007456851192 -0.003195793368 -0.006391586736 0.062248922884 -0.162804871798 9.897579193115
700 1540822817.692325115204 -0.008522115648 -0.006391586736 -0.004261057824 0.047883786261 -0.124497845769 9.801811218262
701 1540822817.694325923920 -0.007456851192 -0.006391586736 -0.004261057824 0.028730273247 -0.167593255639 9.840118408203
702 1540822817.696321964264 -0.006391586736 -0.005326322280 -0.001065264456 0.019153514877 -0.129286229610 9.749138832092
703 1540822817.698323011398 -0.006391586736 -0.006391586736 -0.003195793368 0.019153514877 -0.124497845769 9.782657623291
704 1540822817.700321912766 -0.009587380104 -0.005326322280 -0.002130528912 0.004788378719 -0.158016502857 9.720408439636
705 1540822817.702320098877 -0.005326322280 -0.002130528912 -0.002130528912 0.028730273247 -0.167593255639 9.792234420776
706 1540822817.704322099686 -0.005326322280 -0.002130528912 -0.003195793368 0.071825683117 -0.143651366234 9.820964813232
707 1540822817.706321954727 -0.005326322280 -0.002130528912 -0.003195793368 0.071825683117 -0.143651366234 9.820964813232
708 1540822817.708323001862 -0.002130528912 -0.003195793368 -0.003195793368 0.014365136623 -0.110132709146 9.811388015747
709 1540822817.710324048996 -0.005326322280 -0.000000000000 -0.004261057824 0.052672166377 -0.110132709146 9.811388015747
710 1540822817.712327957153 -0.008522115648 -0.005326322280 -0.006391586736 -0.004788378719 -0.119709469378 9.825753211975
711 1540822817.714327096939 -0.009587380104 -0.006391586736 -0.006391586736 0.028730273247 -0.134074598551 9.768292427063
712 1540822817.716324090958 -0.007456851192 -0.007456851192 -0.002130528912 0.019153514877 -0.119709469378 9.864060401917
713 1540822817.718326091766 -0.008522115648 -0.008522115648 -0.004261057824 0.038307029754 -0.119709469378 9.739562034607
714 1540822817.720324039459 -0.006391586736 -0.006391586736 -0.006391586736 0.019153514877 -0.167593255639 9.729985237122
715 1540822817.722322940826 -0.004261057824 -0.002130528912 -0.004261057824 0.014365136623 -0.114921092987 9.749138832092
716 1540822817.724324941635 -0.002130528912 -0.004261057824 -0.003195793368 0.052672166377 -0.153228119016 9.792234420776
717 1540822817.726325035095 -0.002130528912 -0.002130528912 -0.002130528912 0.043095409870 -0.167593255639 9.768292427063
718 1540822817.728323936462 -0.005326322280 -0.003195793368 -0.003195793368 0.052672166377 -0.153228119016 9.864060401917
719 1540822817.730324029922 -0.006391586736 -0.001065264456 -0.002130528912 0.043095409870 -0.129286229610 9.820964813232
720 1540822817.732325077057 -0.010652644560 -0.004261057824 -0.005326322280 0.052672166377 -0.114921092987 9.864060401917
721 1540822817.734323024750 -0.008522115648 -0.006391586736 -0.004261057824 0.028730273247 -0.158016502857 9.749138832092
722 1540822817.736320972443 -0.007456851192 -0.004261057824 -0.001065264456 0.028730273247 -0.167593255639 9.792234420776
723 1540822817.738321065903 -0.009587380104 -0.004261057824 -0.005326322280 0.028730273247 -0.158016502857 9.753927230835
724 1540822817.740322113037 -0.007456851192 -0.006391586736 -0.002130528912 0.047883786261 -0.138862982392 9.758715629578
725 1540822817.742331981659 -0.007456851192 -0.000000000000 -0.001065264456 0.000000000000 -0.138862982392 9.773080825806
726 1540822817.744324922562 -0.009587380104 -0.001065264456 -0.004261057824 0.033518649638 -0.124497845769 9.744350433350
727 1540822817.746329069138 -0.008522115648 -0.002130528912 -0.004261057824 0.033518649638 -0.148439735174 9.753927230835
728 1540822817.748325109482 -0.006391586736 -0.002130528912 -0.004261057824 0.052672166377 -0.158016502857 9.811388015747
729 1540822817.750327110291 -0.006391586736 -0.004261057824 -0.005326322280 0.038307029754 -0.119709469378 9.816176414490
730 1540822817.752325057983 -0.006391586736 -0.005326322280 -0.003195793368 0.014365136623 -0.129286229610 9.859272003174
731 1540822817.754324913025 -0.009587380104 -0.006391586736 -0.005326322280 0.019153514877 -0.162804871798 9.806599617004
732 1540822817.756324052811 -0.008522115648 -0.009587380104 -0.003195793368 0.023941893131 -0.114921092987 9.820964813232
733 1540822817.758326053619 -0.006391586736 -0.006391586736 -0.000000000000 0.047883786261 -0.162804871798 9.753927230835
734 1540822817.760324001312 -0.011717909016 -0.005326322280 -0.002130528912 0.047883786261 -0.138862982392 9.749138832092
735 1540822817.762330055237 -0.006391586736 -0.004261057824 -0.004261057824 0.071825683117 -0.134074598551 9.782657623291
736 1540822817.764328956604 -0.005326322280 -0.003195793368 -0.002130528912 0.052672166377 -0.205900281668 9.787446022034
737 1540822817.766324996948 -0.003195793368 -0.001065264456 -0.003195793368 0.038307029754 -0.110132709146 9.820964813232
738 1540822817.768326997757 -0.006391586736 -0.001065264456 -0.004261057824 0.043095409870 -0.143651366234 9.806599617004
739 1540822817.770324945450 -0.006391586736 -0.002130528912 -0.002130528912 0.028730273247 -0.181958392262 9.883213996887
740 1540822817.772326946259 -0.008522115648 -0.005326322280 -0.004261057824 0.033518649638 -0.100555956364 9.782657623291
741 1540822817.774322986603 -0.006391586736 -0.005326322280 -0.001065264456 0.009576757438 -0.114921092987 9.806599617004
742 1540822817.776325941086 -0.009587380104 -0.005326322280 0.001065264456 0.033518649638 -0.090979196131 9.777869224548
743 1540822817.778322935104 -0.008522115648 -0.002130528912 -0.004261057824 0.047883786261 -0.134074598551 9.816176414490
744 1540822817.780323982239 -0.007456851192 -0.004261057824 -0.003195793368 -0.023941893131 -0.186746776104 9.729985237122
745 1540822817.782322883606 -0.009587380104 -0.004261057824 -0.001065264456 0.043095409870 -0.167593255639 9.792234420776
746 1540822817.784324884415 -0.006391586736 -0.001065264456 -0.003195793368 0.004788378719 -0.167593255639 9.763504028320
747 1540822817.786324024200 -0.003195793368 -0.003195793368 -0.005326322280 0.028730273247 -0.167593255639 9.797022819519
748 1540822817.788322925568 -0.006391586736 -0.004261057824 -0.004261057824 0.023941893131 -0.181958392262 9.883213996887
749 1540822817.790323019028 -0.009587380104 -0.006391586736 -0.005326322280 0.057460546494 -0.134074598551 9.840118408203
750 1540822817.792324066162 -0.009587380104 -0.006391586736 -0.005326322280 0.057460546494 -0.134074598551 9.840118408203
751 1540822817.794322967529 -0.007456851192 -0.006391586736 -0.000000000000 0.038307029754 -0.167593255639 9.773080825806
752 1540822817.796320915222 -0.007456851192 -0.003195793368 -0.004261057824 0.028730273247 -0.153228119016 9.773080825806
753 1540822817.798321008682 -0.006391586736 -0.003195793368 -0.003195793368 -0.009576757438 -0.138862982392 9.758715629578
754 1540822817.800321102142 -0.007456851192 -0.004261057824 -0.005326322280 0.028730273247 -0.134074598551 9.758715629578
755 1540822817.802321910858 -0.007456851192 -0.003195793368 -0.005326322280 0.019153514877 -0.143651366234 9.725196838379
756 1540822817.804320096970 -0.007456851192 -0.002130528912 -0.003195793368 0.043095409870 -0.167593255639 9.739562034607
757 1540822817.806327104568 -0.005326322280 -0.004261057824 -0.002130528912 0.047883786261 -0.134074598551 9.773080825806
758 1540822817.808322906494 -0.006391586736 -0.003195793368 -0.005326322280 0.047883786261 -0.153228119016 9.825753211975
759 1540822817.810322999954 -0.009587380104 -0.003195793368 -0.005326322280 0.028730273247 -0.110132709146 9.782657623291
760 1540822817.812323093414 -0.009587380104 -0.005326322280 -0.001065264456 0.033518649638 -0.143651366234 9.792234420776
761 1540822817.814328908920 -0.009587380104 -0.005326322280 -0.001065264456 0.033518649638 -0.143651366234 9.792234420776
762 1540822817.816323041916 -0.008522115648 -0.005326322280 -0.002130528912 0.052672166377 -0.153228119016 9.739562034607
763 1540822817.818325042725 -0.006391586736 -0.005326322280 -0.002130528912 0.043095409870 -0.158016502857 9.729985237122
764 1540822817.820324897766 -0.008522115648 -0.004261057824 -0.006391586736 0.047883786261 -0.162804871798 9.667737007141
765 1540822817.822324991226 -0.007456851192 -0.003195793368 -0.004261057824 0.047883786261 -0.119709469378 9.744350433350
766 1540822817.824321985245 -0.005326322280 -0.003195793368 -0.004261057824 0.038307029754 -0.148439735174 9.782657623291
767 1540822817.826320886612 -0.006391586736 -0.001065264456 -0.004261057824 0.052672166377 -0.191535145044 9.811388015747
768 1540822817.828320980072 -0.005326322280 -0.002130528912 -0.007456851192 0.043095409870 -0.158016502857 9.811388015747
769 1540822817.830322027206 -0.006391586736 -0.007456851192 -0.003195793368 0.043095409870 -0.158016502857 9.835330009460
770 1540822817.832324028015 -0.006391586736 -0.007456851192 -0.004261057824 0.062248922884 -0.158016502857 9.806599617004
771 1540822817.834325075150 -0.006391586736 -0.008522115648 -0.003195793368 0.023941893131 -0.124497845769 9.830541610718
772 1540822817.836325883865 -0.007456851192 -0.003195793368 -0.003195793368 0.014365136623 -0.138862982392 9.758715629578
773 1540822817.838325023651 -0.008522115648 -0.004261057824 -0.001065264456 0.052672166377 -0.134074598551 9.787446022034
774 1540822817.840323925018 -0.006391586736 -0.004261057824 -0.004261057824 0.038307029754 -0.119709469378 9.758715629578
775 1540822817.842324018478 -0.005326322280 -0.001065264456 -0.003195793368 0.000000000000 -0.177170008421 9.763504028320
776 1540822817.844325065613 -0.004261057824 -0.002130528912 0.001065264456 0.033518649638 -0.177170008421 9.787446022034
777 1540822817.846324920654 -0.005326322280 -0.002130528912 -0.003195793368 0.057460546494 -0.134074598551 9.820964813232
778 1540822817.848324060440 -0.006391586736 -0.001065264456 -0.007456851192 0.019153514877 -0.119709469378 9.835330009460
779 1540822817.850325107574 -0.007456851192 -0.006391586736 -0.002130528912 0.019153514877 -0.134074598551 9.811388015747
780 1540822817.852329015732 -0.007456851192 -0.009587380104 -0.004261057824 0.052672166377 -0.095767572522 9.801811218262
781 1540822817.854324102402 -0.009587380104 -0.006391586736 -0.005326322280 0.062248922884 -0.129286229610 9.753927230835
782 1540822817.856321096420 -0.008522115648 -0.007456851192 -0.001065264456 0.038307029754 -0.119709469378 9.782657623291
783 1540822817.858320951462 -0.006391586736 -0.003195793368 -0.003195793368 0.023941893131 -0.134074598551 9.763504028320
784 1540822817.860321998596 -0.004261057824 -0.004261057824 -0.003195793368 0.038307029754 -0.162804871798 9.739562034607
785 1540822817.862322092056 -0.002130528912 -0.005326322280 -0.003195793368 0.038307029754 -0.167593255639 9.758715629578
786 1540822817.864324092865 -0.004261057824 -0.002130528912 -0.002130528912 0.057460546494 -0.153228119016 9.758715629578
787 1540822817.866328954697 -0.006391586736 -0.003195793368 -0.003195793368 0.019153514877 -0.110132709146 9.744350433350
788 1540822817.868326902390 -0.006391586736 -0.003195793368 -0.003195793368 0.028730273247 -0.191535145044 9.820964813232
789 1540822817.870325088501 -0.007456851192 -0.004261057824 -0.006391586736 0.033518649638 -0.153228119016 9.820964813232
790 1540822817.872324943542 -0.008522115648 -0.006391586736 -0.003195793368 0.014365136623 -0.162804871798 9.825753211975
791 1540822817.874325037003 -0.006391586736 -0.006391586736 -0.001065264456 0.028730273247 -0.129286229610 9.773080825806
792 1540822817.876326084137 -0.008522115648 -0.008522115648 -0.002130528912 0.047883786261 -0.119709469378 9.744350433350
793 1540822817.878324985504 -0.006391586736 -0.006391586736 -0.001065264456 0.023941893131 -0.100555956364 9.806599617004
794 1540822817.880325078964 -0.005326322280 -0.002130528912 -0.000000000000 0.047883786261 -0.119709469378 9.753927230835
795 1540822817.882323980331 -0.007456851192 -0.000000000000 -0.005326322280 0.014365136623 -0.186746776104 9.849695205688
796 1540822817.884324073792 -0.004261057824 -0.000000000000 -0.004261057824 0.033518649638 -0.143651366234 9.849695205688
797 1540822817.886324882507 -0.008522115648 -0.001065264456 -0.003195793368 0.071825683117 -0.162804871798 9.849695205688
798 1540822817.888323068619 -0.006391586736 -0.003195793368 -0.002130528912 0.057460546494 -0.158016502857 9.816176414490
799 1540822817.890321969986 -0.009587380104 -0.005326322280 -0.000000000000 0.038307029754 -0.143651366234 9.820964813232
800 1540822817.892323017120 -0.005326322280 -0.006391586736 -0.002130528912 0.067037299275 -0.086190819740 9.820964813232
801 1540822817.894325017929 -0.008522115648 -0.008522115648 -0.000000000000 0.038307029754 -0.119709469378 9.744350433350
802 1540822817.896322011948 -0.007456851192 -0.006391586736 -0.000000000000 0.014365136623 -0.129286229610 9.749138832092
803 1540822817.898324966431 -0.009587380104 -0.003195793368 -0.001065264456 0.052672166377 -0.153228119016 9.734773635864
804 1540822817.900321960449 -0.008522115648 -0.002130528912 -0.003195793368 0.033518649638 -0.158016502857 9.773080825806
805 1540822817.902322053909 -0.004261057824 -0.004261057824 -0.003195793368 0.043095409870 -0.095767572522 9.801811218262
806 1540822817.904321908951 -0.005326322280 -0.002130528912 -0.002130528912 0.052672166377 -0.167593255639 9.768292427063
807 1540822817.906322956085 -0.008522115648 -0.003195793368 -0.006391586736 0.062248922884 -0.095767572522 9.844906806946
808 1540822817.908324956894 -0.010652644560 -0.005326322280 -0.006391586736 0.047883786261 -0.124497845769 9.820964813232
809 1540822817.910321950912 -0.008522115648 -0.008522115648 -0.006391586736 0.057460546494 -0.143651366234 9.797022819519
810 1540822817.912333011627 -0.007456851192 -0.007456851192 -0.007456851192 0.047883786261 -0.138862982392 9.777869224548
811 1540822817.914325952530 -0.009587380104 -0.004261057824 -0.002130528912 0.023941893131 -0.105344332755 9.797022819519
812 1540822817.916326045990 -0.009587380104 -0.005326322280 -0.003195793368 0.023941893131 -0.134074598551 9.706043243408
813 1540822817.918327093124 -0.009587380104 -0.005326322280 -0.003195793368 0.038307029754 -0.177170008421 9.777869224548
814 1540822817.920325994492 -0.005326322280 -0.001065264456 -0.001065264456 0.033518649638 -0.153228119016 9.672525405884
815 1540822817.922323942184 -0.005326322280 -0.003195793368 -0.003195793368 -0.019153514877 -0.129286229610 9.758715629578
816 1540822817.924324989319 -0.007456851192 -0.001065264456 -0.007456851192 0.062248922884 -0.153228119016 9.854483604431
817 1540822817.926323890686 -0.004261057824 -0.000000000000 -0.006391586736 0.033518649638 -0.134074598551 9.873637199402
818 1540822817.928323984146 -0.007456851192 -0.005326322280 -0.002130528912 0.009576757438 -0.138862982392 9.782657623291
819 1540822817.930325031281 -0.007456851192 -0.004261057824 -0.005326322280 0.076614059508 -0.105344332755 9.825753211975
820 1540822817.932323932648 -0.006391586736 -0.006391586736 -0.004261057824 0.004788378719 -0.095767572522 9.806599617004
821 1540822817.934323072433 -0.004261057824 -0.005326322280 -0.006391586736 0.033518649638 -0.100555956364 9.782657623291
822 1540822817.936322927475 -0.007456851192 -0.006391586736 -0.002130528912 0.019153514877 -0.172381639481 9.777869224548
823 1540822817.938322067261 -0.008522115648 -0.003195793368 -0.006391586736 0.043095409870 -0.114921092987 9.797022819519
824 1540822817.940323114395 -0.004261057824 -0.001065264456 -0.004261057824 0.014365136623 -0.134074598551 9.749138832092
825 1540822817.942321062088 -0.002130528912 -0.001065264456 -0.001065264456 0.009576757438 -0.177170008421 9.782657623291
826 1540822817.944325923920 -0.007456851192 -0.005326322280 -0.003195793368 0.043095409870 -0.181958392262 9.840118408203
827 1540822817.946321964264 -0.005326322280 -0.002130528912 -0.005326322280 0.038307029754 -0.153228119016 9.825753211975
828 1540822817.948326110840 -0.006391586736 -0.005326322280 -0.004261057824 0.057460546494 -0.114921092987 9.840118408203
829 1540822817.950324058533 -0.010652644560 -0.009587380104 -0.003195793368 0.057460546494 -0.134074598551 9.806599617004
830 1540822817.952323913574 -0.011717909016 -0.007456851192 -0.001065264456 0.057460546494 -0.134074598551 9.816176414490
831 1540822817.954324007034 -0.004261057824 -0.007456851192 -0.003195793368 0.009576757438 -0.090979196131 9.811388015747
832 1540822817.956322908401 -0.003195793368 -0.006391586736 -0.005326322280 0.047883786261 -0.105344332755 9.710831642151
833 1540822817.958333015442 -0.006391586736 -0.003195793368 -0.003195793368 0.009576757438 -0.167593255639 9.739562034607
834 1540822817.960324048996 -0.004261057824 -0.002130528912 -0.003195793368 0.009576757438 -0.158016502857 9.844906806946
835 1540822817.962323904037 -0.006391586736 -0.004261057824 -0.004261057824 0.023941893131 -0.129286229610 9.773080825806
836 1540822817.964308977127 -0.004261057824 -0.005326322280 -0.004261057824 0.057460546494 -0.143651366234 9.825753211975
837 1540822817.966322898865 -0.005326322280 -0.001065264456 -0.003195793368 0.052672166377 -0.124497845769 9.888002395630
838 1540822817.968328952789 -0.006391586736 -0.003195793368 -0.006391586736 0.057460546494 -0.124497845769 9.835330009460
839 1540822817.970325946808 -0.008522115648 -0.006391586736 -0.005326322280 0.071825683117 -0.090979196131 9.801811218262
840 1540822817.972323894501 -0.012783173472 -0.007456851192 -0.003195793368 0.043095409870 -0.134074598551 9.806599617004
841 1540822817.974324941635 -0.010652644560 -0.006391586736 -0.001065264456 0.014365136623 -0.138862982392 9.744350433350
842 1540822817.976324081421 -0.008522115648 -0.009587380104 -0.004261057824 0.019153514877 -0.134074598551 9.763504028320
843 1540822817.978323936462 -0.008522115648 -0.007456851192 -0.003195793368 0.038307029754 -0.158016502857 9.801811218262
844 1540822817.980320930481 -0.008522115648 -0.003195793368 -0.004261057824 0.052672166377 -0.134074598551 9.792234420776
845 1540822817.982326030731 -0.005326322280 -0.003195793368 -0.001065264456 0.062248922884 -0.186746776104 9.811388015747
846 1540822817.984323978424 -0.008522115648 -0.003195793368 -0.002130528912 0.028730273247 -0.148439735174 9.830541610718
847 1540822817.986321926117 -0.002130528912 -0.004261057824 -0.004261057824 0.023941893131 -0.148439735174 9.840118408203
848 1540822817.988322019577 -0.005326322280 -0.005326322280 -0.003195793368 0.028730273247 -0.129286229610 9.820964813232
849 1540822817.990329980850 -0.010652644560 -0.007456851192 -0.003195793368 0.043095409870 -0.129286229610 9.739562034607
850 1540822817.992322921753 -0.008522115648 -0.006391586736 -0.003195793368 0.028730273247 -0.105344332755 9.830541610718
851 1540822817.994323968887 -0.006391586736 -0.007456851192 -0.003195793368 0.033518649638 -0.105344332755 9.758715629578
852 1540822817.996321916580 -0.009587380104 -0.005326322280 -0.004261057824 -0.009576757438 -0.153228119016 9.691679000854
853 1540822817.998322010040 -0.005326322280 -0.003195793368 -0.003195793368 0.000000000000 -0.110132709146 9.758715629578
854 1540822818.000320911407 -0.003195793368 -0.002130528912 -0.003195793368 0.004788378719 -0.148439735174 9.729985237122
855 1540822818.002320051193 -0.003195793368 -0.002130528912 -0.003195793368 0.057460546494 -0.158016502857 9.787446022034
856 1540822818.004322052002 -0.005326322280 0.001065264456 -0.002130528912 0.057460546494 -0.119709469378 9.797022819519
857 1540822818.006320953369 -0.005326322280 -0.002130528912 -0.001065264456 0.043095409870 -0.134074598551 9.792234420776
858 1540822818.008322000504 -0.005326322280 -0.001065264456 -0.005326322280 0.009576757438 -0.138862982392 9.854483604431
859 1540822818.010322093964 -0.007456851192 -0.002130528912 -0.006391586736 0.043095409870 -0.100555956364 9.782657623291
860 1540822818.012320995331 -0.007456851192 -0.006391586736 -0.002130528912 0.014365136623 -0.143651366234 9.797022819519
861 1540822818.014322042465 -0.009587380104 -0.004261057824 -0.005326322280 -0.004788378719 -0.129286229610 9.773080825806
862 1540822818.016325950623 -0.005326322280 -0.004261057824 -0.004261057824 0.033518649638 -0.129286229610 9.734773635864
863 1540822818.018326044083 -0.008522115648 -0.007456851192 -0.001065264456 0.033518649638 -0.167593255639 9.763504028320
864 1540822818.020328044891 -0.004261057824 -0.002130528912 -0.003195793368 0.028730273247 -0.143651366234 9.753927230835
865 1540822818.022325038910 -0.004261057824 -0.002130528912 -0.004261057824 0.047883786261 -0.143651366234 9.835330009460
866 1540822818.024324893951 -0.006391586736 -0.001065264456 -0.002130528912 0.014365136623 -0.148439735174 9.864060401917
867 1540822818.026323080063 -0.006391586736 0.001065264456 -0.004261057824 0.038307029754 -0.143651366234 9.854483604431
868 1540822818.028321027756 -0.011717909016 -0.002130528912 -0.004261057824 0.023941893131 -0.153228119016 9.782657623291
869 1540822818.030323982239 -0.009587380104 -0.003195793368 -0.005326322280 0.052672166377 -0.124497845769 9.792234420776
870 1540822818.032324075699 -0.008522115648 -0.007456851192 -0.002130528912 0.038307029754 -0.119709469378 9.763504028320
871 1540822818.034323930740 -0.006391586736 -0.008522115648 -0.004261057824 0.057460546494 -0.100555956364 9.768292427063
872 1540822818.036330938339 -0.004261057824 -0.007456851192 -0.002130528912 0.038307029754 -0.167593255639 9.739562034607
873 1540822818.038324117661 -0.008522115648 -0.005326322280 -0.003195793368 0.043095409870 -0.134074598551 9.758715629578
874 1540822818.040324926376 -0.006391586736 -0.002130528912 -0.006391586736 0.019153514877 -0.143651366234 9.753927230835
875 1540822818.042324066162 -0.005326322280 -0.003195793368 -0.003195793368 0.086190819740 -0.162804871798 9.773080825806
876 1540822818.044322967529 -0.007456851192 -0.003195793368 -0.005326322280 0.038307029754 -0.162804871798 9.873637199402
877 1540822818.046324014664 -0.006391586736 -0.005326322280 -0.005326322280 0.043095409870 -0.138862982392 9.820964813232
878 1540822818.048324108124 -0.007456851192 -0.007456851192 -0.006391586736 0.033518649638 -0.158016502857 9.801811218262
879 1540822818.050323009491 -0.008522115648 -0.007456851192 -0.001065264456 0.009576757438 -0.143651366234 9.820964813232
880 1540822818.052325963974 -0.008522115648 -0.008522115648 -0.003195793368 0.000000000000 -0.095767572522 9.816176414490
881 1540822818.054325103760 -0.006391586736 -0.004261057824 -0.005326322280 0.019153514877 -0.129286229610 9.744350433350
882 1540822818.056324958801 -0.006391586736 -0.004261057824 -0.005326322280 0.023941893131 -0.143651366234 9.787446022034
883 1540822818.058324098587 -0.003195793368 -0.006391586736 -0.003195793368 0.019153514877 -0.129286229610 9.758715629578
884 1540822818.060326099396 -0.003195793368 -0.003195793368 -0.002130528912 0.043095409870 -0.158016502857 9.777869224548
885 1540822818.062323093414 -0.006391586736 -0.003195793368 -0.003195793368 0.028730273247 -0.172381639481 9.744350433350
886 1540822818.064322948456 -0.005326322280 -0.003195793368 -0.003195793368 0.067037299275 -0.124497845769 9.844906806946
887 1540822818.066323041916 -0.006391586736 -0.005326322280 -0.003195793368 0.043095409870 -0.134074598551 9.797022819519
888 1540822818.068320989609 -0.005326322280 -0.006391586736 0.001065264456 0.047883786261 -0.124497845769 9.787446022034
889 1540822818.070327997208 -0.009587380104 -0.007456851192 0.003195793368 0.033518649638 -0.124497845769 9.797022819519
890 1540822818.072326898575 -0.007456851192 -0.005326322280 -0.004261057824 0.004788378719 -0.138862982392 9.816176414490
891 1540822818.074326038361 -0.009587380104 -0.004261057824 -0.002130528912 0.009576757438 -0.153228119016 9.797022819519
892 1540822818.076325893402 -0.006391586736 -0.006391586736 0.001065264456 0.038307029754 -0.148439735174 9.686890602112
893 1540822818.078325033188 -0.007456851192 -0.006391586736 -0.005326322280 0.033518649638 -0.138862982392 9.753927230835
894 1540822818.080323934555 -0.006391586736 -0.002130528912 -0.008522115648 0.028730273247 -0.181958392262 9.782657623291
895 1540822818.082330942154 -0.004261057824 -0.002130528912 -0.007456851192 0.023941893131 -0.158016502857 9.835330009460
896 1540822818.084325075150 -0.007456851192 -0.002130528912 -0.004261057824 0.043095409870 -0.153228119016 9.844906806946
897 1540822818.086325883865 -0.006391586736 -0.003195793368 -0.002130528912 0.019153514877 -0.162804871798 9.835330009460
898 1540822818.088327884674 -0.009587380104 -0.007456851192 -0.001065264456 0.004788378719 -0.100555956364 9.801811218262
899 1540822818.090322971344 -0.008522115648 -0.009587380104 -0.002130528912 0.047883786261 -0.119709469378 9.763504028320
900 1540822818.092324972153 -0.010652644560 -0.003195793368 -0.002130528912 0.019153514877 -0.110132709146 9.792234420776
901 1540822818.094324111938 -0.008522115648 -0.004261057824 -0.002130528912 0.028730273247 -0.119709469378 9.725196838379
902 1540822818.096323966980 -0.007456851192 -0.003195793368 -0.002130528912 0.004788378719 -0.143651366234 9.768292427063
903 1540822818.098323106766 -0.006391586736 -0.005326322280 -0.002130528912 0.062248922884 -0.167593255639 9.768292427063
904 1540822818.100323915482 -0.005326322280 -0.003195793368 -0.005326322280 0.052672166377 -0.172381639481 9.734773635864
905 1540822818.102325916290 -0.004261057824 -0.002130528912 -0.004261057824 -0.004788378719 -0.158016502857 9.830541610718
906 1540822818.104324102402 -0.003195793368 -0.001065264456 -0.007456851192 0.019153514877 -0.148439735174 9.835330009460
907 1540822818.106324911118 -0.005326322280 -0.003195793368 -0.003195793368 -0.004788378719 -0.167593255639 9.825753211975
908 1540822818.108325004578 -0.007456851192 -0.006391586736 -0.003195793368 0.023941893131 -0.134074598551 9.806599617004
909 1540822818.110323905945 -0.007456851192 -0.005326322280 -0.001065264456 0.067037299275 -0.090979196131 9.758715629578
910 1540822818.112324953079 -0.007456851192 -0.005326322280 -0.001065264456 0.067037299275 -0.090979196131 9.758715629578
911 1540822818.114326953888 -0.008522115648 -0.005326322280 -0.003195793368 0.004788378719 -0.134074598551 9.691679000854
912 1540822818.116324901581 -0.006391586736 -0.005326322280 -0.005326322280 0.004788378719 -0.105344332755 9.773080825806
913 1540822818.118324041367 -0.005326322280 -0.001065264456 -0.004261057824 0.047883786261 -0.162804871798 9.773080825806
914 1540822818.120325088501 -0.004261057824 -0.000000000000 -0.005326322280 0.043095409870 -0.153228119016 9.739562034607
915 1540822818.122328996658 -0.003195793368 -0.002130528912 -0.000000000000 0.028730273247 -0.162804871798 9.797022819519
916 1540822818.124324083328 -0.005326322280 -0.003195793368 -0.002130528912 0.052672166377 -0.167593255639 9.806599617004
917 1540822818.126322031021 -0.005326322280 -0.002130528912 -0.003195793368 0.043095409870 -0.153228119016 9.825753211975
918 1540822818.128328084946 -0.007456851192 -0.006391586736 -0.002130528912 0.000000000000 -0.119709469378 9.844906806946
919 1540822818.130322933197 -0.008522115648 -0.007456851192 -0.001065264456 0.000000000000 -0.105344332755 9.777869224548
920 1540822818.132323026657 -0.009587380104 -0.006391586736 -0.004261057824 0.019153514877 -0.119709469378 9.816176414490
921 1540822818.134325027466 -0.006391586736 -0.007456851192 -0.004261057824 0.019153514877 -0.153228119016 9.729985237122
922 1540822818.136326074600 -0.004261057824 -0.006391586736 -0.002130528912 0.033518649638 -0.138862982392 9.792234420776
923 1540822818.138324022293 -0.003195793368 -0.000000000000 -0.003195793368 0.067037299275 -0.148439735174 9.787446022034
924 1540822818.140326023102 -0.003195793368 -0.002130528912 -0.004261057824 0.057460546494 -0.124497845769 9.844906806946
925 1540822818.142324924469 -0.006391586736 -0.002130528912 -0.003195793368 0.033518649638 -0.158016502857 9.868848800659
926 1540822818.144324064255 -0.003195793368 -0.002130528912 -0.004261057824 0.023941893131 -0.162804871798 9.792234420776
927 1540822818.146323919296 -0.004261057824 -0.006391586736 -0.001065264456 0.028730273247 -0.153228119016 9.902367591858
928 1540822818.148324012756 -0.009587380104 -0.007456851192 -0.005326322280 0.028730273247 -0.134074598551 9.854483604431
929 1540822818.150322914124 -0.009587380104 -0.007456851192 -0.007456851192 0.038307029754 -0.153228119016 9.806599617004
930 1540822818.152324914932 -0.007456851192 -0.005326322280 -0.005326322280 0.033518649638 -0.124497845769 9.763504028320
931 1540822818.154325962067 -0.007456851192 -0.006391586736 -0.002130528912 0.004788378719 -0.129286229610 9.763504028320
932 1540822818.156322956085 -0.004261057824 -0.006391586736 -0.005326322280 0.043095409870 -0.153228119016 9.758715629578
933 1540822818.158320903778 -0.007456851192 -0.005326322280 -0.002130528912 0.023941893131 -0.167593255639 9.773080825806
934 1540822818.160320997238 -0.005326322280 -0.003195793368 -0.005326322280 0.095767572522 -0.186746776104 9.768292427063
935 1540822818.162321090698 -0.008522115648 -0.002130528912 -0.008522115648 0.038307029754 -0.143651366234 9.835330009460
936 1540822818.164323091507 -0.004261057824 -0.001065264456 -0.004261057824 0.071825683117 -0.129286229610 9.787446022034
937 1540822818.166323900223 -0.005326322280 -0.003195793368 -0.003195793368 0.038307029754 -0.153228119016 9.840118408203
938 1540822818.168323040009 -0.010652644560 -0.006391586736 -0.004261057824 0.076614059508 -0.100555956364 9.854483604431
939 1540822818.170321941376 -0.009587380104 -0.007456851192 -0.006391586736 0.028730273247 -0.119709469378 9.768292427063
940 1540822818.172322034836 -0.011717909016 -0.008522115648 -0.004261057824 0.009576757438 -0.129286229610 9.725196838379
941 1540822818.174334049225 -0.009587380104 -0.007456851192 -0.003195793368 0.047883786261 -0.124497845769 9.686890602112
942 1540822818.176323890686 -0.006391586736 -0.008522115648 -0.004261057824 0.019153514877 -0.124497845769 9.715620040894
943 1540822818.178323984146 -0.006391586736 -0.003195793368 -0.003195793368 0.057460546494 -0.148439735174 9.734773635864
944 1540822818.180325031281 -0.006391586736 -0.001065264456 -0.005326322280 0.033518649638 -0.162804871798 9.811388015747
945 1540822818.182323932648 -0.005326322280 -0.000000000000 -0.005326322280 0.052672166377 -0.162804871798 9.797022819519
946 1540822818.184323072433 -0.005326322280 -0.003195793368 -0.004261057824 0.014365136623 -0.138862982392 9.801811218262
947 1540822818.186322927475 -0.006391586736 -0.003195793368 -0.003195793368 0.033518649638 -0.143651366234 9.844906806946
948 1540822818.188323020935 -0.009587380104 -0.009587380104 -0.004261057824 -0.009576757438 -0.119709469378 9.706043243408
949 1540822818.190324068069 -0.007456851192 -0.008522115648 -0.001065264456 0.047883786261 -0.143651366234 9.787446022034
950 1540822818.192323923111 -0.009587380104 -0.007456851192 -0.001065264456 -0.009576757438 -0.105344332755 9.725196838379
951 1540822818.194323062897 -0.006391586736 -0.005326322280 -0.003195793368 -0.014365136623 -0.134074598551 9.782657623291
952 1540822818.196321964264 -0.004261057824 -0.002130528912 -0.004261057824 0.004788378719 -0.129286229610 9.725196838379
953 1540822818.198322057724 -0.005326322280 -0.002130528912 -0.000000000000 0.033518649638 -0.129286229610 9.811388015747
954 1540822818.200323104858 -0.007456851192 -0.003195793368 -0.002130528912 0.023941893131 -0.186746776104 9.782657623291
955 1540822818.202321052551 -0.005326322280 -0.003195793368 -0.006391586736 0.023941893131 -0.158016502857 9.859272003174
956 1540822818.204320907593 -0.003195793368 -0.005326322280 -0.004261057824 0.047883786261 -0.124497845769 9.844906806946
957 1540822818.206320047379 -0.005326322280 -0.006391586736 -0.005326322280 0.047883786261 -0.100555956364 9.801811218262
958 1540822818.208348035812 -0.009587380104 -0.005326322280 -0.004261057824 0.028730273247 -0.119709469378 9.801811218262
959 1540822818.210321903229 -0.010652644560 -0.007456851192 -0.002130528912 0.014365136623 -0.124497845769 9.811388015747
960 1540822818.212325096130 -0.010652644560 -0.006391586736 -0.002130528912 0.019153514877 -0.100555956364 9.734773635864
961 1540822818.214323043823 -0.008522115648 -0.003195793368 -0.003195793368 0.062248922884 -0.105344332755 9.763504028320
962 1540822818.216321945190 -0.005326322280 -0.004261057824 -0.003195793368 0.019153514877 -0.167593255639 9.701254844666
963 1540822818.218322992325 -0.002130528912 -0.005326322280 -0.005326322280 0.023941893131 -0.181958392262 9.816176414490
964 1540822818.220321893692 -0.005326322280 -0.003195793368 -0.004261057824 0.033518649638 -0.095767572522 9.883213996887
965 1540822818.222323894501 -0.007456851192 -0.000000000000 -0.005326322280 0.076614059508 -0.143651366234 9.864060401917
966 1540822818.224329948425 -0.005326322280 -0.002130528912 -0.006391586736 0.047883786261 -0.134074598551 9.844906806946
967 1540822818.226325035095 -0.008522115648 -0.006391586736 -0.003195793368 0.038307029754 -0.153228119016 9.878425598145
968 1540822818.228323936462 -0.005326322280 -0.005326322280 -0.004261057824 0.038307029754 -0.148439735174 9.720408439636
969 1540822818.230320930481 -0.010652644560 -0.006391586736 -0.003195793368 0.052672166377 -0.110132709146 9.777869224548
970 1540822818.232322931290 -0.009587380104 -0.005326322280 -0.004261057824 0.033518649638 -0.138862982392 9.782657623291
971 1540822818.234322071075 -0.008522115648 -0.003195793368 -0.004261057824 0.014365136623 -0.143651366234 9.701254844666
972 1540822818.236323118210 -0.007456851192 -0.004261057824 -0.002130528912 0.019153514877 -0.167593255639 9.710831642151
973 1540822818.238322019577 -0.007456851192 -0.004261057824 -0.002130528912 0.019153514877 -0.167593255639 9.710831642151
974 1540822818.240323066711 -0.004261057824 0.001065264456 -0.005326322280 0.043095409870 -0.177170008421 9.773080825806
975 1540822818.242325067520 -0.007456851192 -0.004261057824 -0.004261057824 0.076614059508 -0.186746776104 9.816176414490
976 1540822818.244323968887 -0.003195793368 -0.004261057824 -0.004261057824 0.028730273247 -0.143651366234 9.811388015747
977 1540822818.246323108673 -0.007456851192 -0.004261057824 -0.003195793368 0.038307029754 -0.162804871798 9.797022819519
978 1540822818.248323917389 -0.009587380104 -0.005326322280 -0.006391586736 0.052672166377 -0.105344332755 9.801811218262
979 1540822818.250322103500 -0.010652644560 -0.004261057824 -0.003195793368 0.004788378719 -0.105344332755 9.777869224548
980 1540822818.252325057983 -0.011717909016 -0.004261057824 -0.003195793368 0.038307029754 -0.158016502857 9.763504028320
981 1540822818.254326105118 -0.010652644560 -0.004261057824 -0.002130528912 0.023941893131 -0.148439735174 9.753927230835
982 1540822818.256323099136 -0.005326322280 -0.000000000000 -0.004261057824 0.052672166377 -0.153228119016 9.734773635864
